onset	duration	run_number	trial_number	att_task	fix_direction	bar_period	bar_direction	bar_step	fix_noise_ori	stim_noise_ori	fix_stair_val	stim_stair_val	response_val	probe_time	reaction_time
1545308454	1.191513062	6	1	2	1	9	1	1	3	3	5	5	n/a	n/a	n/a
1545308456	1.191627979	6	2	2	1	9	1	2	3	3	5	5	n/a	n/a	n/a
1545308457	1.191754818	6	3	2	1	9	1	3	3	3	5	5	n/a	n/a	n/a
1545308458	1.191751003	6	4	2	1	9	1	4	3	3	5	5	n/a	n/a	n/a
1545308459	1.191581011	6	5	2	1	9	1	5	3	3	5	5	n/a	n/a	n/a
1545308460	1.191634893	6	6	2	1	9	1	6	3	3	5	5	n/a	n/a	n/a
1545308462	1.200148106	6	7	2	1	9	1	7	3	3	5	5	n/a	n/a	n/a
1545308463	1.191570044	6	8	2	1	9	1	8	3	3	5	5	n/a	n/a	n/a
1545308464	1.191709042	6	9	2	1	9	1	9	3	3	5	5	n/a	n/a	n/a
1545308465	1.191671133	6	10	2	1	9	1	10	3	3	5	5	n/a	n/a	n/a
1545308467	1.196653128	6	11	2	1	1	2	1	2	2	5	5	n/a	1545308467	n/a
1545308468	1.191689014	6	12	2	1	1	2	2	2	2	5	6	0	1545308468	0.8503251076
1545308469	1.191674948	6	13	2	1	1	2	3	2	1	5	6	1	1545308469	0.9002959728
1545308470	1.191704035	6	14	2	1	1	2	4	1	1	5	6	n/a	1545308470	n/a
1545308471	1.191685915	6	15	2	1	1	2	5	1	1	5	6	n/a	1545308472	n/a
1545308473	1.200007915	6	16	2	1	1	2	6	2	1	5	6	n/a	1545308473	n/a
1545308474	1.191718102	6	17	2	1	1	2	7	2	2	5	7	0	1545308474	0.05034899712
1545308475	1.191720963	6	18	2	1	1	2	8	2	1	5	7	n/a	1545308475	n/a
1545308476	1.191703796	6	19	2	1	1	2	9	2	1	5	7	1	1545308476	0.7839281559
1545308477	1.191660166	6	20	2	1	1	2	10	1	1	5	7	1	1545308478	0.7511999607
1545308479	1.191666842	6	21	2	1	1	2	11	1	1	5	6	1	1545308479	0.8168101311
1545308480	1.191689014	6	22	2	1	1	2	12	2	1	5	6	1	1545308480	0.7919938564
1545308481	1.199914932	6	23	2	1	1	2	13	2	1	5	6	n/a	1545308481	n/a
1545308482	1.191671133	6	24	2	1	1	2	14	2	2	5	6	1	1545308483	0.875483036
1545308483	1.191689014	6	25	2	1	1	2	15	1	2	5	5	1	1545308484	0.7502291203
1545308485	1.191707134	6	26	2	1	1	2	16	1	2	5	6	0	1545308485	0.7836370468
1545308486	1.191714048	6	27	2	1	1	2	17	2	2	5	6	1	1545308486	0.650192976
1545308487	1.191705942	6	28	2	1	1	2	18	2	2	5	6	n/a	1545308487	n/a
1545308488	1.198634148	6	29	2	1	9	3	1	3	3	5	6	n/a	n/a	n/a
1545308490	1.191460133	6	30	2	1	9	3	2	3	3	5	6	n/a	n/a	n/a
1545308491	1.191737175	6	31	2	1	9	3	3	3	3	5	6	n/a	n/a	n/a
1545308492	1.191706896	6	32	2	1	9	3	4	3	3	5	6	n/a	n/a	n/a
1545308493	1.191798925	6	33	2	1	9	3	5	3	3	5	6	n/a	n/a	n/a
1545308494	1.19173789	6	34	2	1	9	3	6	3	3	5	6	n/a	n/a	n/a
1545308496	1.191732883	6	35	2	1	9	3	7	3	3	5	6	n/a	n/a	n/a
1545308497	1.191604853	6	36	2	1	9	3	8	3	3	5	6	n/a	n/a	n/a
1545308498	1.191700935	6	37	2	1	9	3	9	3	3	5	6	n/a	n/a	n/a
1545308499	1.191791058	6	38	2	1	9	3	10	3	3	5	6	n/a	n/a	n/a
1545308500	1.199717999	6	39	2	1	5	4	1	2	2	5	6	n/a	1545308501	n/a
1545308502	1.191986084	6	40	2	1	5	4	2	2	1	5	6	1	1545308502	0.6173551083
1545308503	1.199815989	6	41	2	1	5	4	3	2	2	5	5	1	1545308503	0.7835838795
1545308504	1.191714048	6	42	2	1	5	4	4	2	1	5	5	n/a	1545308504	n/a
1545308505	1.191741943	6	43	2	1	5	4	5	2	1	5	5	n/a	1545308506	n/a
1545308507	1.191628933	6	44	2	1	5	4	6	1	2	5	5	n/a	1545308507	n/a
1545308508	1.200068951	6	45	2	1	5	4	7	1	2	5	5	1	1545308508	0.8928267956
1545308509	1.200045109	6	46	2	1	5	4	8	1	1	5	5	n/a	1545308509	n/a
1545308510	1.191711903	6	47	2	1	5	4	9	2	2	5	5	1	1545308510	0.8086130619
1545308511	1.200068951	6	48	2	1	5	4	10	1	1	5	6	0	1545308512	0.7753310204
1545308513	1.199975014	6	49	2	1	5	4	11	1	1	5	6	1	1545308513	0.7171099186
1545308514	1.200016975	6	50	2	1	5	4	12	2	1	5	7	0	1545308514	0.8585398197
1545308515	1.191680908	6	51	2	1	5	4	13	1	1	5	7	1	1545308515	0.7667770386
1545308516	1.191669941	6	52	2	1	5	4	14	2	2	5	7	n/a	1545308516	n/a
1545308517	1.191651821	6	53	2	1	5	4	15	1	2	5	7	1	1545308518	0.8584039211
1545308519	1.200037003	6	54	2	1	5	4	16	2	1	5	7	n/a	1545308519	n/a
1545308520	1.191762924	6	55	2	1	5	4	17	1	2	5	7	n/a	1545308520	n/a
1545308521	1.191720009	6	56	2	1	5	4	18	1	2	5	7	n/a	1545308521	n/a
1545308522	1.199862957	6	57	2	1	9	5	1	3	3	5	7	n/a	n/a	n/a
1545308524	1.191675901	6	58	2	1	9	5	2	3	3	5	7	n/a	n/a	n/a
1545308525	1.191704035	6	59	2	1	9	5	3	3	3	5	7	n/a	n/a	n/a
1545308526	1.191741943	6	60	2	1	9	5	4	3	3	5	7	n/a	n/a	n/a
1545308527	1.191849947	6	61	2	1	9	5	5	3	3	5	7	n/a	n/a	n/a
1545308528	1.19176507	6	62	2	1	9	5	6	3	3	5	7	n/a	n/a	n/a
1545308530	1.191761971	6	63	2	1	9	5	7	3	3	5	7	n/a	n/a	n/a
1545308531	1.191642046	6	64	2	1	9	5	8	3	3	5	7	n/a	n/a	n/a
1545308532	1.191787958	6	65	2	1	9	5	9	3	3	5	7	n/a	n/a	n/a
1545308533	1.191704988	6	66	2	1	9	5	10	3	3	5	7	n/a	n/a	n/a
1545308534	1.199712038	6	67	2	1	1	6	1	2	2	5	7	n/a	1545308535	n/a
1545308536	1.191711903	6	68	2	1	1	6	2	1	1	5	6	1	1545308536	0.6251001358
1545308537	1.191669941	6	69	2	1	1	6	3	1	2	5	6	n/a	1545308537	n/a
1545308538	1.191712856	6	70	2	1	1	6	4	1	2	5	6	1	1545308538	0.7918059826
1545308539	1.200052977	6	71	2	1	1	6	5	2	1	5	6	1	1545308540	0.7001950741
1545308540	1.191727877	6	72	2	1	1	6	6	1	2	5	7	0	1545308541	0.7668979168
1545308542	1.191728115	6	73	2	1	1	6	7	2	2	5	7	1	1545308542	0.7334589958
1545308543	1.20004487	6	74	2	1	1	6	8	1	1	5	7	n/a	1545308543	n/a
1545308544	1.19166398	6	75	2	1	1	6	9	2	2	5	7	1	1545308544	0.7001338005
1545308545	1.191637039	6	76	2	1	1	6	10	1	2	5	7	1	1545308546	0.858577013
1545308546	1.191672087	6	77	2	1	1	6	11	2	1	5	6	1	1545308547	0.8165800571
1545308548	1.19182992	6	78	2	1	1	6	12	2	2	5	6	1	1545308548	0.7583298683
1545308549	1.191735029	6	79	2	1	1	6	13	1	1	5	6	n/a	1545308549	n/a
1545308550	1.200061083	6	80	2	1	1	6	14	2	1	5	6	n/a	1545308550	n/a
1545308551	1.19174099	6	81	2	1	1	6	15	2	1	5	6	n/a	1545308552	n/a
1545308552	1.191704035	6	82	2	1	1	6	16	1	1	5	6	n/a	1545308553	n/a
1545308554	1.191656113	6	83	2	1	1	6	17	1	1	5	6	n/a	1545308554	n/a
1545308555	1.191677094	6	84	2	1	1	6	18	1	2	5	6	n/a	1545308555	n/a
1545308556	1.199705124	6	85	2	1	9	7	1	3	3	5	6	n/a	n/a	n/a
1545308557	1.191693068	6	86	2	1	9	7	2	3	3	5	6	n/a	n/a	n/a
1545308559	1.199937105	6	87	2	1	9	7	3	3	3	5	6	n/a	n/a	n/a
1545308560	1.191725969	6	88	2	1	9	7	4	3	3	5	6	n/a	n/a	n/a
1545308561	1.191726923	6	89	2	1	9	7	5	3	3	5	6	n/a	n/a	n/a
1545308562	1.191735983	6	90	2	1	9	7	6	3	3	5	6	n/a	n/a	n/a
1545308563	1.191711903	6	91	2	1	9	7	7	3	3	5	6	n/a	n/a	n/a
1545308565	1.191747189	6	92	2	1	9	7	8	3	3	5	6	n/a	n/a	n/a
1545308566	1.19174099	6	93	2	1	9	7	9	3	3	5	6	n/a	n/a	n/a
1545308567	1.191735983	6	94	2	1	9	7	10	3	3	5	6	n/a	n/a	n/a
1545308568	1.19966507	6	95	2	1	5	8	1	1	1	5	5	1	1545308569	0.8334460258
1545308570	1.200057983	6	96	2	1	5	8	2	1	1	5	5	1	1545308570	0.8251230717
1545308571	1.191809893	6	97	2	1	5	8	3	1	2	5	5	n/a	1545308571	n/a
1545308572	1.191632032	6	98	2	1	5	8	4	1	1	5	5	1	1545308572	0.8834438324
1545308573	1.191740036	6	99	2	1	5	8	5	2	1	5	6	0	1545308573	0.8333969116
1545308574	1.191799879	6	100	2	1	5	8	6	2	2	5	6	1	1545308575	0.7750780582
1545308576	1.191771984	6	101	2	1	5	8	7	1	1	5	6	1	1545308576	0.7583367825
1545308577	1.200062037	6	102	2	1	5	8	8	1	1	5	5	1	1545308577	0.8167819977
1545308578	1.191659927	6	103	2	1	5	8	9	1	2	5	6	0	1545308578	0.8253610134
1545308579	1.191622019	6	104	2	1	5	8	10	2	2	5	6	0	1545308579	0.8917639256
1545308580	1.191688061	6	105	2	1	5	8	11	2	2	5	7	1	1545308581	0.7333989143
1545308582	1.191767931	6	106	2	1	5	8	12	2	2	5	7	1	1545308582	0.7334370613
1545308583	1.200005054	6	107	2	1	5	8	13	2	2	5	8	0	1545308583	0.8417901993
1545308584	1.191681862	6	108	2	1	5	8	14	1	2	5	8	1	1545308584	0.8418159485
1545308585	1.191708803	6	109	2	1	5	8	15	1	1	5	8	1	1545308585	0.8583891392
1545308586	1.191709995	6	110	2	1	5	8	16	1	1	5	7	1	1545308587	0.8085229397
1545308588	1.191730022	6	111	2	1	5	8	17	1	1	5	7	n/a	1545308588	n/a
1545308589	1.191712856	6	112	2	1	5	8	18	1	2	5	7	n/a	1545308589	n/a
1545308590	1.199663877	6	113	2	1	9	9	1	3	3	5	7	n/a	n/a	n/a
1545308591	1.191730022	6	114	2	1	9	9	2	3	3	5	7	n/a	n/a	n/a
1545308593	1.191716194	6	115	2	1	9	9	3	3	3	5	7	n/a	n/a	n/a
1545308594	1.191695929	6	116	2	1	9	9	4	3	3	5	7	n/a	n/a	n/a
1545308595	1.19174695	6	117	2	1	9	9	5	3	3	5	7	n/a	n/a	n/a
1545308596	1.191680908	6	118	2	1	9	9	6	3	3	5	7	n/a	n/a	n/a
1545308597	1.191668034	6	119	2	1	9	9	7	3	3	5	7	n/a	n/a	n/a
1545308599	1.191716194	6	120	2	1	9	9	8	3	3	5	7	n/a	n/a	n/a
1545308600	1.191779852	6	121	2	1	9	9	9	3	3	5	7	n/a	n/a	n/a
1545308601	1.191781998	6	122	2	1	9	9	10	3	3	5	7	n/a	n/a	n/a
