onset	duration	run_number	trial_number	att_task	fix_direction	bar_direction	bar_period	bar_step	fix_noise_ori	stim_noise_ori	fix_stair_val	stim_stair_val	response_val	probe_time	reaction_time
23850.28679	1.250417952	2	1	2	4	9	1	1	3	3	3	9	n/a	n/a	n/a
23851.55378	1.206705567	2	2	2	4	9	1	2	3	3	3	9	n/a	n/a	n/a
23852.77054	1.200199999	2	3	2	4	9	1	3	3	3	3	9	n/a	n/a	n/a
23853.98719	1.20022283	2	4	2	4	9	1	4	3	3	3	9	n/a	n/a	n/a
23855.20486	1.184189176	2	5	2	4	9	1	5	3	3	3	9	n/a	n/a	n/a
23856.40422	1.183227739	2	6	2	4	9	1	6	3	3	3	9	n/a	n/a	n/a
23857.60403	1.183429024	2	7	2	4	9	1	7	3	3	3	9	n/a	n/a	n/a
23858.8042	1.18341145	2	8	2	4	9	1	8	3	3	3	9	n/a	n/a	n/a
23860.00431	1.18342434	2	9	2	4	9	1	9	3	3	3	9	n/a	n/a	n/a
23861.20389	1.183909667	2	10	2	4	9	1	10	3	3	3	9	n/a	n/a	n/a
23862.44092	1.346801211	2	11	2	4	1	2	1	1	2	3	9	n/a	23862.75459	n/a
23863.80445	1.283403772	2	12	2	4	1	2	2	1	2	3	8	1	23864.13842	0.782463885
23865.10443	1.366882992	2	13	2	4	1	2	3	1	2	3	8	1	23865.42169	1.015376151
23866.48806	1.382185471	2	14	2	4	1	2	4	2	2	3	8	1	23866.82155	0.983299446
23867.88691	1.367909435	2	15	2	4	1	2	5	1	1	3	7	1	23868.20645	0.864821619
23869.27155	1.383397727	2	16	2	4	1	2	6	1	2	3	8	0	23869.60518	0.91706801
23870.67085	1.367555348	2	17	2	4	1	2	7	2	2	3	8	1	23870.98828	0.86695591
23872.0551	1.316617333	2	18	2	4	1	2	8	1	2	3	8	1	23872.37183	0.934953173
23873.38857	1.333285703	2	19	2	4	1	2	9	1	1	3	7	1	23873.72183	0.933313519
23874.73856	1.350060688	2	20	2	4	1	2	10	1	1	3	7	1	23875.05526	1.000191175
23876.10529	1.366800593	2	21	2	4	1	2	11	1	2	3	7	1	23876.43799	0.833723145
23877.48856	1.333575655	2	22	2	4	1	2	12	2	2	3	6	1	23877.82144	0.866592826
23878.83889	1.383362985	2	23	2	4	1	2	13	1	1	3	6	1	23879.17207	0.869485786
23880.23902	1.371024225	2	24	2	4	1	2	14	1	1	3	6	1	23880.5556	0.800264786
23881.62228	1.366827749	2	25	2	4	1	2	15	1	1	3	5	1	23881.9434	0.929367249
23883.00529	1.350279478	2	26	2	4	1	2	16	2	1	3	5	0	23883.3058	1.050139943
23884.3721	1.3505196	2	27	2	4	1	2	17	2	2	3	6	1	23884.70554	0.966865072
23885.73904	1.283696816	2	28	2	4	1	2	18	2	2	3	6	n/a	23886.02273	n/a
23887.0395	1.383239492	2	29	2	4	1	2	19	1	2	3	6	n/a	23887.37274	n/a
23888.4395	1.333437599	2	30	2	4	1	2	20	2	1	3	7	0	23888.75611	0.083743512
23889.78973	1.333282263	2	31	2	4	1	2	21	2	2	3	8	0	23890.08968	0.116701297
23891.13967	1.383449946	2	32	2	4	1	2	22	1	2	3	8	1	23891.47264	0.866750003
23892.53988	1.383413856	2	33	2	4	1	2	23	2	1	3	8	1	23892.87313	1.015575749
23893.94018	1.333084993	2	34	2	4	1	2	24	1	1	3	8	n/a	23894.25661	n/a
23895.28996	1.350051718	2	35	2	4	1	2	25	2	1	3	8	n/a	23895.58998	n/a
23896.65683	1.349992588	2	36	2	4	1	2	26	2	2	3	9	0	23896.99007	0.065646289
23898.02361	1.333701287	2	37	2	4	1	2	27	1	1	3	10	0	23898.35683	0.615483639
23899.37358	1.350111658	2	38	2	4	1	2	28	1	1	3	10	1	23899.69026	0.699203571
23900.74038	1.366708835	2	39	2	4	1	2	29	1	2	3	10	1	23901.05706	0.682515893
23902.12366	1.366749472	2	40	2	4	1	2	30	1	1	3	9	1	23902.42377	0.616997795
23903.50716	1.36574535	2	41	2	4	1	2	31	2	1	3	9	1	23903.84057	0.749837265
23904.89076	1.383290942	2	42	2	4	1	2	32	1	2	3	9	n/a	23905.22399	n/a
23906.30862	1.199265661	2	43	2	4	9	3	1	3	3	3	9	n/a	n/a	n/a
23907.52473	1.199485181	2	44	2	4	9	3	2	3	3	3	9	n/a	n/a	n/a
23908.74088	1.183361042	2	45	2	4	9	3	3	3	3	3	9	n/a	n/a	n/a
23909.94066	1.200374289	2	46	2	4	9	3	4	3	3	3	9	n/a	n/a	n/a
23911.15784	1.189763625	2	47	2	4	9	3	5	3	3	3	9	n/a	n/a	n/a
23912.35744	1.183783051	2	48	2	4	9	3	6	3	3	3	9	n/a	n/a	n/a
23913.55818	1.183102155	2	49	2	4	9	3	7	3	3	3	9	n/a	n/a	n/a
23914.75808	1.199978363	2	50	2	4	9	3	8	3	3	3	9	n/a	n/a	n/a
23915.97418	1.200665359	2	51	2	4	9	3	9	3	3	3	9	n/a	n/a	n/a
23917.19164	1.183277508	2	52	2	4	9	3	10	3	3	3	9	n/a	n/a	n/a
23918.40778	1.36746349	2	53	2	4	3	4	1	2	1	3	9	1	23918.74217	0.766679129
23919.79209	1.366385617	2	54	2	4	3	4	2	1	2	3	8	1	23920.12443	0.900289049
23921.17495	1.367045045	2	55	2	4	3	4	3	1	1	3	8	1	23921.49175	0.750280101
23922.55883	1.383104732	2	56	2	4	3	4	4	1	2	3	8	1	23922.89185	0.76686418
23923.95872	1.366665273	2	57	2	4	3	4	5	1	1	3	7	1	23924.2753	0.699922971
23925.34184	1.367011036	2	58	2	4	3	4	6	2	2	3	7	1	23925.67574	0.749723591
23926.72565	1.415972177	2	59	2	4	3	4	7	1	2	3	7	1	23927.05887	0.833035035
23928.1589	1.400205162	2	60	2	4	3	4	8	2	2	3	6	1	23928.49236	0.800238578
23929.57594	1.381714089	2	61	2	4	3	4	9	2	2	3	6	1	23929.90902	0.966445068
23930.97572	1.350126194	2	62	2	4	3	4	10	1	2	3	6	1	23931.25912	0.882976217
23932.34252	1.366377664	2	63	2	4	3	4	11	1	2	3	6	0	23932.67587	1.016830103
23933.72594	1.399525111	2	64	2	4	3	4	12	1	2	3	7	1	23934.05929	0.832907501
23935.14305	1.349891532	2	65	2	4	3	4	13	2	1	3	7	1	23935.47575	0.699963651
23936.50948	1.38340797	2	66	2	4	3	4	14	2	1	3	6	1	23936.84286	0.733469657
23937.90954	1.383317175	2	67	2	4	3	4	15	1	1	3	6	1	23938.2429	0.932910014
23939.30966	1.366748443	2	68	2	4	3	4	16	2	1	3	6	1	23939.643	0.965601344
23940.69237	1.358077016	2	69	2	4	3	4	17	2	2	3	6	n/a	23941.00976	n/a
23942.05938	1.367205814	2	70	2	4	3	4	18	1	1	3	5	1	23942.39259	0.916855876
23943.45984	1.183484936	2	71	2	4	9	5	1	3	3	3	5	n/a	n/a	n/a
23944.66005	1.183456975	2	72	2	4	9	5	2	3	3	3	5	n/a	n/a	n/a
23945.86021	1.20008989	2	73	2	4	9	5	3	3	3	3	5	n/a	n/a	n/a
23947.07703	1.182090766	2	74	2	4	9	5	4	3	3	3	5	n/a	n/a	n/a
23948.27617	1.184321349	2	75	2	4	9	5	5	3	3	3	5	n/a	n/a	n/a
23949.47724	1.183094147	2	76	2	4	9	5	6	3	3	3	5	n/a	n/a	n/a
23950.67725	1.183440138	2	77	2	4	9	5	7	3	3	3	5	n/a	n/a	n/a
23951.8773	1.183448772	2	78	2	4	9	5	8	3	3	3	5	n/a	n/a	n/a
23953.07749	1.183193194	2	79	2	4	9	5	9	3	3	3	5	n/a	n/a	n/a
23954.27748	1.183302481	2	80	2	4	9	5	10	3	3	3	5	n/a	n/a	n/a
23955.49428	1.366579264	2	81	2	4	5	6	1	1	1	3	6	0	23955.82745	0.515911786
23956.87757	1.366707068	2	82	2	4	5	6	2	1	2	3	6	1	23957.19424	0.916546195
23958.26094	1.383441513	2	83	2	4	5	6	3	2	1	3	7	0	23958.5941	0.867649381
23959.66133	1.349772389	2	84	2	4	5	6	4	2	2	3	7	n/a	23959.97752	n/a
23961.02787	1.366723811	2	85	2	4	5	6	5	2	1	3	7	n/a	23961.34415	n/a
23962.41152	1.366394801	2	86	2	4	5	6	6	2	1	3	7	n/a	23962.72711	n/a
23963.79409	1.367392245	2	87	2	4	5	6	7	2	2	3	7	n/a	23964.11144	n/a
23965.17834	1.383204079	2	88	2	4	5	6	8	1	2	3	7	n/a	23965.51144	n/a
23966.57837	1.349760506	2	89	2	4	5	6	9	1	2	3	8	0	23966.89487	0.917434879
23967.94469	1.383773689	2	90	2	4	5	6	10	1	2	3	8	1	23968.2616	0.832246286
23969.34533	1.36625919	2	91	2	4	5	6	11	1	1	3	8	1	23969.66181	0.915537951
23970.72862	1.333316028	2	92	2	4	5	6	12	2	1	3	7	1	23971.04522	0.850188412
23972.07869	1.333348532	2	93	2	4	5	6	13	2	1	3	7	1	23972.39529	0.83260769
23973.42887	1.366553946	2	94	2	4	5	6	14	1	2	3	8	0	23973.74521	0.86652728
23974.81227	1.383278597	2	95	2	4	5	6	15	2	2	3	8	1	23975.14483	0.917234077
23976.21223	1.350095383	2	96	2	4	5	6	16	2	2	3	8	1	23976.52888	0.982540345
23977.57888	1.366777566	2	97	2	4	5	6	17	2	1	3	7	1	23977.89565	0.883475077
23978.96241	1.383401994	2	98	2	4	5	6	18	1	2	3	7	1	23979.29576	0.76573539
23980.36273	1.349775375	2	99	2	4	5	6	19	1	2	3	7	n/a	23980.67922	n/a
23981.72932	1.383373919	2	100	2	4	5	6	20	2	2	3	7	n/a	23982.06261	n/a
23983.12942	1.366626316	2	101	2	4	5	6	21	2	1	3	7	n/a	23983.44615	n/a
23984.51276	1.383759659	2	102	2	4	5	6	22	1	2	3	7	n/a	23984.84613	n/a
23985.91291	1.383389262	2	103	2	4	5	6	23	1	2	3	7	1	23986.24623	0.883438943
23987.31331	1.366479379	2	104	2	4	5	6	24	1	1	3	6	1	23987.62966	0.867017643
23988.69662	1.36575037	2	105	2	4	5	6	25	1	2	3	6	1	23989.01279	1.000318995
23990.07973	1.3669183	2	106	2	4	5	6	26	1	1	3	6	n/a	23990.39652	n/a
23991.4633	1.333418347	2	107	2	4	5	6	27	1	2	3	6	1	23991.77999	0.766642382
23992.81323	1.365578634	2	108	2	4	5	6	28	1	2	3	5	1	23993.13026	0.766430804
23994.19703	1.349870604	2	109	2	4	5	6	29	2	2	3	5	1	23994.53012	0.832732761
23995.56366	1.383256993	2	110	2	4	5	6	30	2	1	3	6	0	23995.89687	0.983216609
23996.96366	1.383604315	2	111	2	4	5	6	31	1	1	3	6	n/a	23997.297	n/a
23998.364	1.366579947	2	112	2	4	5	6	32	1	1	3	6	n/a	23998.68043	n/a
23999.76323	1.183820643	2	113	2	4	9	7	1	3	3	3	6	n/a	n/a	n/a
24000.96415	1.203713573	2	114	2	4	9	7	2	3	3	3	6	n/a	n/a	n/a
24002.18068	1.18327532	2	115	2	4	9	7	3	3	3	3	6	n/a	n/a	n/a
24003.3809	1.18325631	2	116	2	4	9	7	4	3	3	3	6	n/a	n/a	n/a
24004.58081	1.183434199	2	117	2	4	9	7	5	3	3	3	6	n/a	n/a	n/a
24005.78115	1.183431834	2	118	2	4	9	7	6	3	3	3	6	n/a	n/a	n/a
24006.97998	1.20119018	2	119	2	4	9	7	7	3	3	3	6	n/a	n/a	n/a
24008.19794	1.183335183	2	120	2	4	9	7	8	3	3	3	6	n/a	n/a	n/a
24009.39839	1.182836354	2	121	2	4	9	7	9	3	3	3	6	n/a	n/a	n/a
24010.59801	1.18330607	2	122	2	4	9	7	10	3	3	3	6	n/a	n/a	n/a
24011.81438	1.36755847	2	123	2	4	7	8	1	1	1	3	6	n/a	24012.14775	n/a
24013.19892	1.33258847	2	124	2	4	7	8	2	2	2	3	6	1	24013.51498	0.816715032
24014.54808	1.383530277	2	125	2	4	7	8	3	2	1	3	6	1	24014.88168	0.81566874
24015.94718	1.367901405	2	126	2	4	7	8	4	1	1	3	5	1	24016.26499	0.866815785
24017.33188	1.366494371	2	127	2	4	7	8	5	1	1	3	5	1	24017.66461	0.949863708
24018.71473	1.367180425	2	128	2	4	7	8	6	1	2	3	5	1	24019.03177	0.865668162
24020.09858	1.366776256	2	129	2	4	7	8	7	2	1	3	4	1	24020.41544	0.983003673
24021.48214	1.400212738	2	130	2	4	7	8	8	1	2	3	4	n/a	24021.81565	n/a
24022.89892	1.399964238	2	131	2	4	7	8	9	2	1	3	4	n/a	24023.23195	n/a
24024.31569	1.366617038	2	132	2	4	7	8	10	2	2	3	4	1	24024.63229	0.633275332
24025.69875	1.383627488	2	133	2	4	7	8	11	2	1	3	4	1	24026.01567	0.849175911
24027.09798	1.401129107	2	134	2	4	7	8	12	2	1	3	3	1	24027.41574	0.799819292
24028.51505	1.350920263	2	135	2	4	7	8	13	1	2	3	3	n/a	24028.83254	n/a
24029.88259	1.383372926	2	136	2	4	7	8	14	2	1	3	3	n/a	24030.21592	n/a
24031.28275	1.373202403	2	137	2	4	7	8	15	2	2	3	3	n/a	24031.60075	n/a
24032.66548	1.33404648	2	138	2	4	7	8	16	2	1	3	4	0	24032.98297	0.833132565
24034.01563	1.3674865	2	139	2	4	7	8	17	1	1	3	4	1	24034.31624	0.9002694
24035.39918	1.350530639	2	140	2	4	7	8	18	1	1	3	4	n/a	24035.71632	n/a
24036.78278	1.18374555	2	141	2	4	9	9	1	3	3	3	4	n/a	n/a	n/a
24037.98336	1.183286318	2	142	2	4	9	9	2	3	3	3	4	n/a	n/a	n/a
24039.18341	1.199948185	2	143	2	4	9	9	3	3	3	3	4	n/a	n/a	n/a
24040.40042	1.182997957	2	144	2	4	9	9	4	3	3	3	4	n/a	n/a	n/a
24041.60012	1.183367213	2	145	2	4	9	9	5	3	3	3	4	n/a	n/a	n/a
24042.8003	1.183111513	2	146	2	4	9	9	6	3	3	3	4	n/a	n/a	n/a
24043.99999	1.183475569	2	147	2	4	9	9	7	3	3	3	4	n/a	n/a	n/a
24045.20036	1.183345676	2	148	2	4	9	9	8	3	3	3	4	n/a	n/a	n/a
24046.4005	1.199942273	2	149	2	4	9	9	9	3	3	3	4	n/a	n/a	n/a
24047.61722	1.183381659	2	150	2	4	9	9	10	3	3	3	4	n/a	n/a	n/a
