onset	duration	run_number	trial_number	att_task	fix_direction	bar_direction	bar_period	bar_step	fix_noise_ori	stim_noise_ori	fix_stair_val	stim_stair_val	response_val	probe_time	reaction_time
25173.97963	1.215248974	5	1	1	1	9	1	1	3	3	4	8	n/a	n/a	n/a
25175.21174	1.200381578	5	2	1	1	9	1	2	3	3	4	8	n/a	n/a	n/a
25176.42853	1.1827476	5	3	1	1	9	1	3	3	3	4	8	n/a	n/a	n/a
25177.62813	1.183351801	5	4	1	1	9	1	4	3	3	4	8	n/a	n/a	n/a
25178.82845	1.183486659	5	5	1	1	9	1	5	3	3	4	8	n/a	n/a	n/a
25180.02837	1.183111406	5	6	1	1	9	1	6	3	3	4	8	n/a	n/a	n/a
25181.22805	1.183537683	5	7	1	1	9	1	7	3	3	4	8	n/a	n/a	n/a
25182.42795	1.184330046	5	8	1	1	9	1	8	3	3	4	8	n/a	n/a	n/a
25183.62915	1.198998734	5	9	1	1	9	1	9	3	3	4	8	n/a	n/a	n/a
25184.8452	1.183206961	5	10	1	1	9	1	10	3	3	4	8	n/a	n/a	n/a
25186.09859	1.297340146	5	11	1	1	1	2	1	1	2	4	8	n/a	25186.41117	n/a
25187.41251	1.316697928	5	12	1	1	1	2	2	2	2	4	8	1	25187.7452	0.650961355
25188.74601	1.332657068	5	13	1	1	1	2	3	1	2	4	8	1	25189.07955	0.715953822
25190.0962	1.315277183	5	14	1	1	1	2	4	1	1	3	8	1	25190.41291	0.783382525
25191.42837	1.367804703	5	15	1	1	1	2	5	2	2	3	8	1	25191.7481	0.764694591
25192.81287	1.350032879	5	16	1	1	1	2	6	2	2	3	8	1	25193.14605	0.766805224
25194.17946	1.348999493	5	17	1	1	1	2	7	2	2	4	8	0	25194.51306	0.849130251
25195.54584	1.367580726	5	18	1	1	1	2	8	1	2	4	8	1	25195.87971	0.733408019
25196.92887	1.301242878	5	19	1	1	1	2	9	1	2	4	8	1	25197.26287	0.669917172
25198.24598	1.33264539	5	20	1	1	1	2	10	1	1	5	8	0	25198.57887	0.617210638
25199.59589	1.299842726	5	21	1	1	1	2	11	1	2	5	8	1	25199.91246	0.650217125
25200.91299	1.300311193	5	22	1	1	1	2	12	2	2	5	8	1	25201.22985	0.655554573
25202.23007	1.349762294	5	23	1	1	1	2	13	2	1	4	8	1	25202.56349	0.732780657
25203.59641	1.349803312	5	24	1	1	1	2	14	1	2	4	8	1	25203.93023	0.751554303
25204.96296	1.334122568	5	25	1	1	1	2	15	2	2	4	8	1	25205.29668	0.500115628
25206.31325	1.300693437	5	26	1	1	1	2	16	2	1	5	8	0	25206.64617	0.66697183
25207.62957	1.284334951	5	27	1	1	1	2	17	1	1	5	8	1	25207.93015	0.916858206
25208.92949	1.233544093	5	28	1	1	1	2	18	1	1	5	8	1	25209.21385	0.949392996
25210.18029	1.184268566	5	29	1	1	9	3	1	3	3	5	8	n/a	n/a	n/a
25211.3806	1.200255173	5	30	1	1	9	3	2	3	3	5	8	n/a	n/a	n/a
25212.59719	1.182978973	5	31	1	1	9	3	3	3	3	5	8	n/a	n/a	n/a
25213.79688	1.184259942	5	32	1	1	9	3	4	3	3	5	8	n/a	n/a	n/a
25214.99748	1.182958305	5	33	1	1	9	3	5	3	3	5	8	n/a	n/a	n/a
25216.19657	1.18445413	5	34	1	1	9	3	6	3	3	5	8	n/a	n/a	n/a
25217.39709	1.184415114	5	35	1	1	9	3	7	3	3	5	8	n/a	n/a	n/a
25218.5979	1.200255262	5	36	1	1	9	3	8	3	3	5	8	n/a	n/a	n/a
25219.8142	1.183849152	5	37	1	1	9	3	9	3	3	5	8	n/a	n/a	n/a
25221.01478	1.183462672	5	38	1	1	9	3	10	3	3	5	8	n/a	n/a	n/a
25222.23195	1.199768676	5	39	1	1	5	4	1	1	1	4	8	1	25222.51536	0.666721262
25223.44855	1.26650186	5	40	1	1	5	4	2	1	2	4	8	1	25223.76515	0.916113746
25224.7321	1.299298999	5	41	1	1	5	4	3	2	2	4	8	1	25225.04827	0.733368133
25226.04843	1.299753681	5	42	1	1	5	4	4	2	1	3	8	1	25226.34847	0.916786145
25227.3654	1.350108658	5	43	1	1	5	4	5	2	1	3	8	1	25227.6983	0.85045911
25228.73087	1.334528055	5	44	1	1	5	4	6	1	2	3	8	1	25229.04866	0.850190762
25230.08178	1.367066978	5	45	1	1	5	4	7	2	2	3	8	n/a	25230.39872	n/a
25231.46558	1.382276687	5	46	1	1	5	4	8	2	2	2	8	1	25231.79864	0.766454209
25232.86538	1.350308015	5	47	1	1	5	4	9	1	1	2	8	1	25233.16567	0.632781138
25234.23195	1.350634355	5	48	1	1	5	4	10	1	2	2	8	1	25234.54904	0.716465364
25235.5994	1.349498621	5	49	1	1	5	4	11	2	1	2	8	1	25235.91583	0.683063093
25236.96592	1.349861107	5	50	1	1	5	4	12	2	1	2	8	1	25237.29938	0.71632788
25238.3327	1.36672571	5	51	1	1	5	4	13	1	2	2	8	1	25238.66528	0.766547612
25239.71625	1.366311819	5	52	1	1	5	4	14	1	2	2	8	1	25240.04944	0.799011639
25241.09949	1.366768267	5	53	1	1	5	4	15	1	1	2	8	1	25241.41605	0.766563038
25242.48285	1.283654043	5	54	1	1	5	4	16	1	2	2	8	1	25242.76625	0.882859426
25243.78306	1.366590728	5	55	1	1	5	4	17	2	1	2	8	1	25244.11638	1.033549072
25245.16662	1.283218976	5	56	1	1	5	4	18	2	1	2	8	1	25245.48254	0.9159209
25246.4825	1.200523859	5	57	1	1	9	5	1	3	3	2	8	n/a	n/a	n/a
25247.69996	1.183618334	5	58	1	1	9	5	2	3	3	2	8	n/a	n/a	n/a
25248.90013	1.183379078	5	59	1	1	9	5	3	3	3	2	8	n/a	n/a	n/a
25250.10034	1.182120892	5	60	1	1	9	5	4	3	3	2	8	n/a	n/a	n/a
25251.2991	1.184660405	5	61	1	1	9	5	5	3	3	2	8	n/a	n/a	n/a
25252.50054	1.183217095	5	62	1	1	9	5	6	3	3	2	8	n/a	n/a	n/a
25253.70074	1.182706812	5	63	1	1	9	5	7	3	3	2	8	n/a	n/a	n/a
25254.90031	1.183665134	5	64	1	1	9	5	8	3	3	2	8	n/a	n/a	n/a
25256.10084	1.183326157	5	65	1	1	9	5	9	3	3	2	8	n/a	n/a	n/a
25257.30035	1.183831124	5	66	1	1	9	5	10	3	3	2	8	n/a	n/a	n/a
25258.51749	1.233885579	5	67	1	1	1	6	1	2	1	2	8	n/a	25258.81756	n/a
25259.76842	1.332031889	5	68	1	1	1	6	2	1	1	2	8	1	25260.10081	0.799948069
25261.11744	1.283852522	5	69	1	1	1	6	3	1	2	2	8	1	25261.45083	0.799940971
25262.41767	1.366928753	5	70	1	1	1	6	4	2	1	2	8	1	25262.73417	0.816530191
25263.80131	1.365750465	5	71	1	1	1	6	5	1	1	2	8	1	25264.1345	0.78288878
25265.18428	1.366990945	5	72	1	1	1	6	6	1	1	2	8	1	25265.50118	0.649928041
25266.56815	1.333366416	5	73	1	1	1	6	7	1	2	2	8	1	25266.88402	0.783715941
25267.91843	1.333001887	5	74	1	1	1	6	8	2	1	2	8	1	25268.25138	0.832886934
25269.26828	1.349905412	5	75	1	1	1	6	9	2	1	2	8	1	25269.56819	0.882300886
25270.63441	1.283161176	5	76	1	1	1	6	10	1	1	2	8	1	25270.95174	0.815982386
25271.93499	1.383121404	5	77	1	1	1	6	11	2	1	2	8	1	25272.26833	0.833539977
25273.33518	1.349904739	5	78	1	1	1	6	12	2	2	2	8	1	25273.66844	0.815762066
25274.70192	1.316907802	5	79	1	1	1	6	13	2	2	2	8	1	25275.01884	0.981808164
25276.03507	1.333456768	5	80	1	1	1	6	14	2	2	2	8	n/a	25276.31867	n/a
25277.38496	1.334001595	5	81	1	1	1	6	15	2	2	2	8	n/a	25277.66874	n/a
25278.73526	1.317043333	5	82	1	1	1	6	16	2	1	2	8	n/a	25279.01885	n/a
25280.06919	1.283061574	5	83	1	1	1	6	17	1	2	2	8	1	25280.36789	0.884182902
25281.36928	1.283015407	5	84	1	1	1	6	18	2	2	2	8	1	25281.66906	0.899251366
25282.68499	1.18417961	5	85	1	1	9	7	1	3	3	2	8	n/a	n/a	n/a
25283.88571	1.183757212	5	86	1	1	9	7	2	3	3	2	8	n/a	n/a	n/a
25285.08537	1.184191711	5	87	1	1	9	7	3	3	3	2	8	n/a	n/a	n/a
25286.28497	1.184525025	5	88	1	1	9	7	4	3	3	2	8	n/a	n/a	n/a
25287.48602	1.183487979	5	89	1	1	9	7	5	3	3	2	8	n/a	n/a	n/a
25288.68573	1.184161747	5	90	1	1	9	7	6	3	3	2	8	n/a	n/a	n/a
25289.88531	1.184561335	5	91	1	1	9	7	7	3	3	2	8	n/a	n/a	n/a
25291.08578	1.190854595	5	92	1	1	9	7	8	3	3	2	8	n/a	n/a	n/a
25292.28601	1.183867097	5	93	1	1	9	7	9	3	3	2	8	n/a	n/a	n/a
25293.48623	1.183382695	5	94	1	1	9	7	10	3	3	2	8	n/a	n/a	n/a
25294.70275	1.217569576	5	95	1	1	5	8	1	2	1	2	8	1	25294.98613	0.817341739
25295.93587	1.267699742	5	96	1	1	5	8	2	2	2	2	8	n/a	25296.22024	n/a
25297.2207	1.1990766	5	97	1	1	5	8	3	2	1	2	8	n/a	25297.50343	n/a
25298.43616	1.267473282	5	98	1	1	5	8	4	2	1	2	8	n/a	25298.71919	n/a
25299.72011	1.25024014	5	99	1	1	5	8	5	2	1	2	8	n/a	25300.00366	n/a
25300.98693	1.317024607	5	100	1	1	5	8	6	1	1	2	8	1	25301.27046	0.865531146
25302.32025	1.35018515	5	101	1	1	5	8	7	2	1	2	8	1	25302.65357	0.867041515
25303.68659	1.26728464	5	102	1	1	5	8	8	2	1	2	8	1	25303.97074	0.849356623
25304.97096	1.183063823	5	103	1	1	5	8	9	1	1	2	8	1	25305.25391	0.882687749
25306.17048	1.183585831	5	104	1	1	5	8	10	1	2	2	8	n/a	25306.45403	n/a
25307.3703	1.283868209	5	105	1	1	5	8	11	1	1	2	8	n/a	25307.65404	n/a
25308.66957	1.200808093	5	106	1	1	5	8	12	1	2	2	8	1	25308.97046	0.900054039
25309.88747	1.266849179	5	107	1	1	5	8	13	1	1	2	8	1	25310.17071	0.932767053
25311.17104	1.183382797	5	108	1	1	5	8	14	1	2	2	8	n/a	25311.45435	n/a
25312.37016	1.184399438	5	109	1	1	5	8	15	1	1	2	8	n/a	25312.65443	n/a
25313.57107	1.300003742	5	110	1	1	5	8	16	2	1	2	8	1	25313.85452	0.932905066
25314.88746	1.183601093	5	111	1	1	5	8	17	2	1	2	8	1	25315.17095	0.88317279
25316.08743	1.250297496	5	112	1	1	5	8	18	2	2	2	8	1	25316.37079	0.817155809
25317.35481	1.183096202	5	113	1	1	9	9	1	3	3	2	8	n/a	n/a	n/a
25318.55499	1.183113199	5	114	1	1	9	9	2	3	3	2	8	n/a	n/a	n/a
25319.75502	1.183123513	5	115	1	1	9	9	3	3	3	2	8	n/a	n/a	n/a
25320.95512	1.199962661	5	116	1	1	9	9	4	3	3	2	8	n/a	n/a	n/a
25322.17168	1.199771382	5	117	1	1	9	9	5	3	3	2	8	n/a	n/a	n/a
25323.38855	1.182616053	5	118	1	1	9	9	6	3	3	2	8	n/a	n/a	n/a
25324.58825	1.183309589	5	119	1	1	9	9	7	3	3	2	8	n/a	n/a	n/a
25325.78842	1.182713102	5	120	1	1	9	9	8	3	3	2	8	n/a	n/a	n/a
25326.98854	1.183435976	5	121	1	1	9	9	9	3	3	2	8	n/a	n/a	n/a
25328.18866	1.182893627	5	122	1	1	9	9	10	3	3	2	8	n/a	n/a	n/a
