onset	duration	run_number	trial_number	att_task	fix_direction	bar_direction	bar_period	bar_step	fix_noise_ori	stim_noise_ori	fix_stair_val	stim_stair_val	response_val	probe_time	reaction_time
24169.46027	1.215680824	3	1	1	4	9	1	1	3	3	3	4	n/a	n/a	n/a
24170.69252	1.216710678	3	2	1	4	9	1	2	3	3	3	4	n/a	n/a	n/a
24171.92599	1.199947243	3	3	1	4	9	1	3	3	3	3	4	n/a	n/a	n/a
24173.1427	1.20008874	3	4	1	4	9	1	4	3	3	3	4	n/a	n/a	n/a
24174.36114	1.199619174	3	5	1	4	9	1	5	3	3	3	4	n/a	n/a	n/a
24175.57632	1.183161878	3	6	1	4	9	1	6	3	3	3	4	n/a	n/a	n/a
24176.77613	1.183485916	3	7	1	4	9	1	7	3	3	3	4	n/a	n/a	n/a
24177.97624	1.18332738	3	8	1	4	9	1	8	3	3	3	4	n/a	n/a	n/a
24179.17635	1.183056972	3	9	1	4	9	1	9	3	3	3	4	n/a	n/a	n/a
24180.37626	1.183454662	3	10	1	4	9	1	10	3	3	3	4	n/a	n/a	n/a
24181.6439	1.299245957	3	11	1	4	1	2	1	1	1	3	4	n/a	24181.95192	n/a
24182.9599	1.349898134	3	12	1	4	1	2	2	2	2	2	4	1	24183.29338	0.749629888
24184.32658	1.366765907	3	13	1	4	1	2	3	1	2	3	4	0	24184.66013	0.766194602
24185.7102	1.348967479	3	14	1	4	1	2	4	1	2	3	4	1	24186.04354	0.682960123
24187.07607	1.350778936	3	15	1	4	1	2	5	2	1	3	4	1	24187.41211	0.748509874
24188.44358	1.366751185	3	16	1	4	1	2	6	1	2	2	4	1	24188.77731	0.66692831
24189.82666	1.367002005	3	17	1	4	1	2	7	2	1	3	4	0	24190.16015	0.666346958
24191.21044	1.366463175	3	18	1	4	1	2	8	1	1	3	4	1	24191.54374	0.650592088
24192.59382	1.366728508	3	19	1	4	1	2	9	2	1	3	4	1	24192.92717	0.599699192
24193.97713	1.383667395	3	20	1	4	1	2	10	2	1	4	4	0	24194.31061	0.685283676
24195.3775	1.383505732	3	21	1	4	1	2	11	2	2	5	4	0	24195.71092	0.799810303
24196.77745	1.383533904	3	22	1	4	1	2	12	1	2	5	4	1	24197.1108	0.699840827
24198.17772	1.366569613	3	23	1	4	1	2	13	2	1	5	4	1	24198.51104	0.636184615
24199.56106	1.333306746	3	24	1	4	1	2	14	1	2	4	4	1	24199.8943	0.617124703
24200.91027	1.400882298	3	25	1	4	1	2	15	2	2	4	4	1	24201.24432	0.600140349
24202.32796	1.383290297	3	26	1	4	1	2	16	1	2	5	4	0	24202.66114	0.700146279
24203.72795	1.366782009	3	27	1	4	1	2	17	2	1	6	4	0	24204.06126	0.883175967
24205.11154	1.366697453	3	28	1	4	1	2	18	1	2	7	4	0	24205.44467	0.90002255
24206.49468	1.383531525	3	29	1	4	1	2	19	2	2	8	4	0	24206.82825	0.832501075
24207.8949	1.383371464	3	30	1	4	1	2	20	1	2	8	4	1	24208.22824	0.900789508
24209.29471	1.300467899	3	31	1	4	1	2	21	2	1	8	4	1	24209.62824	0.767086178
24210.6113	1.384121828	3	32	1	4	1	2	22	2	2	7	4	1	24210.94493	0.848573931
24212.0122	1.366407968	3	33	1	4	1	2	23	2	2	7	4	1	24212.34527	0.765842176
24213.39548	1.382893101	3	34	1	4	1	2	24	2	2	7	4	1	24213.72862	0.81638549
24214.79535	1.383522878	3	35	1	4	1	2	25	1	2	6	4	1	24215.1288	0.700109304
24216.19569	1.383212549	3	36	1	4	1	2	26	1	2	6	4	1	24216.52899	0.666436195
24217.59567	1.383327043	3	37	1	4	1	2	27	2	1	6	4	1	24217.92893	0.682246345
24218.99574	1.366411249	3	38	1	4	1	2	28	2	1	5	4	1	24219.32909	0.666734897
24220.37914	1.366704708	3	39	1	4	1	2	29	2	1	5	4	1	24220.71243	0.683725701
24221.76248	1.366906943	3	40	1	4	1	2	30	2	1	5	4	1	24222.09622	0.699553058
24223.14616	1.383182669	3	41	1	4	1	2	31	1	1	4	4	1	24223.47931	0.666444863
24224.54618	1.366566103	3	42	1	4	1	2	32	1	1	4	4	1	24224.87889	0.749914266
24225.9476	1.215816572	3	43	1	4	9	3	1	3	3	4	4	n/a	n/a	n/a
24227.18029	1.216023233	3	44	1	4	9	3	2	3	3	4	4	n/a	n/a	n/a
24228.41312	1.199281368	3	45	1	4	9	3	3	3	3	4	4	n/a	n/a	n/a
24229.62981	1.183325446	3	46	1	4	9	3	4	3	3	4	4	n/a	n/a	n/a
24230.8299	1.199970622	3	47	1	4	9	3	5	3	3	4	4	n/a	n/a	n/a
24232.04695	1.182977866	3	48	1	4	9	3	6	3	3	4	4	n/a	n/a	n/a
24233.24708	1.182907497	3	49	1	4	9	3	7	3	3	4	4	n/a	n/a	n/a
24234.44672	1.183376781	3	50	1	4	9	3	8	3	3	4	4	n/a	n/a	n/a
24235.64684	1.183388405	3	51	1	4	9	3	9	3	3	4	4	n/a	n/a	n/a
24236.84702	1.183252401	3	52	1	4	9	3	10	3	3	4	4	n/a	n/a	n/a
24238.06284	1.367546393	3	53	1	4	3	4	1	1	1	4	4	1	24238.38087	0.683900905
24239.4472	1.38326411	3	54	1	4	3	4	2	2	2	3	4	1	24239.78049	0.666871644
24240.84714	1.382349435	3	55	1	4	3	4	3	1	1	3	4	1	24241.18052	0.8226754
24242.24725	1.38332239	3	56	1	4	3	4	4	2	2	3	4	1	24242.58062	0.899883062
24243.647	1.400517732	3	57	1	4	3	4	5	2	2	2	4	1	24243.99753	0.799119248
24245.06418	1.366671282	3	58	1	4	3	4	6	1	1	2	4	1	24245.39746	0.80011081
24246.44721	1.367048312	3	59	1	4	3	4	7	1	1	2	4	1	24246.78087	0.900075904
24247.83111	1.416590626	3	60	1	4	3	4	8	2	1	2	4	1	24248.18095	0.916619504
24249.26444	1.366762479	3	61	1	4	3	4	9	1	2	2	4	1	24249.59782	0.833139831
24250.64737	1.417222039	3	62	1	4	3	4	10	1	1	3	4	0	24251.01451	0.899691971
24252.0814	1.383263951	3	63	1	4	3	4	11	1	1	3	4	1	24252.41481	0.76719876
24253.48146	1.416670712	3	64	1	4	3	4	12	1	1	3	4	1	24253.83135	0.799454622
24254.91494	1.366584344	3	65	1	4	3	4	13	2	1	2	4	1	24255.24812	0.699412623
24256.29815	1.366820784	3	66	1	4	3	4	14	2	2	2	4	1	24256.63155	0.766458192
24257.68166	1.382052421	3	67	1	4	3	4	15	1	2	2	4	1	24258.01478	0.816531869
24259.08153	1.383932667	3	68	1	4	3	4	16	2	2	2	4	1	24259.41511	0.799981065
24260.48126	1.417423197	3	69	1	4	3	4	17	1	1	3	4	0	24260.83192	0.799567122
24261.91373	1.38423527	3	70	1	4	3	4	18	1	2	3	4	1	24262.24861	0.8004112
24263.33185	1.183583058	3	71	1	4	9	5	1	3	3	3	4	n/a	n/a	n/a
24264.53217	1.183609501	3	72	1	4	9	5	2	3	3	3	4	n/a	n/a	n/a
24265.73207	1.183662343	3	73	1	4	9	5	3	3	3	3	4	n/a	n/a	n/a
24266.93248	1.181849094	3	74	1	4	9	5	4	3	3	3	4	n/a	n/a	n/a
24268.13145	1.184292305	3	75	1	4	9	5	5	3	3	3	4	n/a	n/a	n/a
24269.33254	1.183306446	3	76	1	4	9	5	6	3	3	3	4	n/a	n/a	n/a
24270.5328	1.206132706	3	77	1	4	9	5	7	3	3	3	4	n/a	n/a	n/a
24271.74887	1.183831256	3	78	1	4	9	5	8	3	3	3	4	n/a	n/a	n/a
24272.9494	1.200350398	3	79	1	4	9	5	9	3	3	3	4	n/a	n/a	n/a
24274.16619	1.183313486	3	80	1	4	9	5	10	3	3	3	4	n/a	n/a	n/a
24275.3825	1.34918763	3	81	1	4	5	6	1	2	2	3	4	1	24275.69957	0.783681984
24276.74961	1.350089313	3	82	1	4	5	6	2	1	1	2	4	1	24277.06631	0.833282141
24278.11664	1.3665276	3	83	1	4	5	6	3	2	1	2	4	1	24278.4497	0.866069266
24279.49993	1.349963729	3	84	1	4	5	6	4	2	1	2	4	1	24279.81648	0.949151188
24280.86592	1.334051254	3	85	1	4	5	6	5	2	1	2	4	1	24281.16655	0.949458847
24282.21677	1.38328271	3	86	1	4	5	6	6	1	2	2	4	1	24282.55001	0.7987865
24283.61648	1.350705869	3	87	1	4	5	6	7	1	2	2	4	1	24283.93363	0.915847675
24284.9836	1.383307344	3	88	1	4	5	6	8	1	2	2	4	1	24285.31687	0.933333359
24286.38297	1.367369245	3	89	1	4	5	6	9	2	2	2	4	1	24286.70029	0.815340506
24287.76698	1.366865042	3	90	1	4	5	6	10	1	1	2	4	1	24288.10085	0.832257977
24289.15066	1.349903613	3	91	1	4	5	6	11	1	2	2	4	1	24289.484	0.933401652
24290.51619	1.367782452	3	92	1	4	5	6	12	2	1	2	4	1	24290.83375	0.783602277
24291.90068	1.383362197	3	93	1	4	5	6	13	1	2	2	4	1	24292.23397	0.815886484
24293.30049	1.367001674	3	94	1	4	5	6	14	1	2	2	4	1	24293.61742	0.900137672
24294.68424	1.366683797	3	95	1	4	5	6	15	1	2	2	4	1	24295.01753	0.949756743
24296.06722	1.383670796	3	96	1	4	5	6	16	2	1	2	4	1	24296.40096	0.916883433
24297.46761	1.383263909	3	97	1	4	5	6	17	1	1	2	4	1	24297.80119	0.86566894
24298.86798	1.366576553	3	98	1	4	5	6	18	2	1	2	4	1	24299.20116	0.849956049
24300.25127	1.366696608	3	99	1	4	5	6	19	1	1	2	4	1	24300.58473	0.715750134
24301.63414	1.384184431	3	100	1	4	5	6	20	1	1	3	4	0	24301.99079	0.727311767
24303.03512	1.383065657	3	101	1	4	5	6	21	1	1	3	4	1	24303.36817	0.765916826
24304.43504	1.383257159	3	102	1	4	5	6	22	1	1	3	4	1	24304.76823	0.950051681
24305.83448	1.333876595	3	103	1	4	5	6	23	1	1	2	4	1	24306.13454	0.916892025
24307.18518	1.349611482	3	104	1	4	5	6	24	2	2	2	4	1	24307.50173	0.95024335
24308.55182	1.316828444	3	105	1	4	5	6	25	2	1	2	4	n/a	24308.86847	n/a
24309.88415	1.351162708	3	106	1	4	5	6	26	1	2	3	4	0	24310.20082	0.733271385
24311.25212	1.383331088	3	107	1	4	5	6	27	2	2	4	4	0	24311.58538	0.516967853
24312.65234	1.349872317	3	108	1	4	5	6	28	2	2	4	4	1	24312.98547	0.86614609
24314.01909	1.383381203	3	109	1	4	5	6	29	1	1	4	4	1	24314.33564	0.682671186
24315.41927	1.383148497	3	110	1	4	5	6	30	1	1	3	4	1	24315.75232	0.76660821
24316.81912	1.350073392	3	111	1	4	5	6	31	2	2	3	4	1	24317.13539	0.666187761
24318.18598	1.350019792	3	112	1	4	5	6	32	2	2	4	4	0	24318.50255	0.632519908
24319.56909	1.183539031	3	113	1	4	9	7	1	3	3	4	4	n/a	n/a	n/a
24320.7693	1.183416788	3	114	1	4	9	7	2	3	3	4	4	n/a	n/a	n/a
24321.96955	1.183238665	3	115	1	4	9	7	3	3	3	4	4	n/a	n/a	n/a
24323.16954	1.183342947	3	116	1	4	9	7	4	3	3	4	4	n/a	n/a	n/a
24324.36969	1.183297882	3	117	1	4	9	7	5	3	3	4	4	n/a	n/a	n/a
24325.56977	1.216633365	3	118	1	4	9	7	6	3	3	4	4	n/a	n/a	n/a
24326.80291	1.183551029	3	119	1	4	9	7	7	3	3	4	4	n/a	n/a	n/a
24328.00332	1.183230183	3	120	1	4	9	7	8	3	3	4	4	n/a	n/a	n/a
24329.20334	1.183381593	3	121	1	4	9	7	9	3	3	4	4	n/a	n/a	n/a
24330.40346	1.205592309	3	122	1	4	9	7	10	3	3	4	4	n/a	n/a	n/a
24331.65285	1.367807531	3	123	1	4	7	8	1	1	1	4	4	n/a	24331.99378	n/a
24333.03791	1.365706633	3	124	1	4	7	8	2	2	1	4	4	n/a	24333.35355	n/a
24334.42043	1.349935843	3	125	1	4	7	8	3	2	1	4	4	n/a	24334.75363	n/a
24335.78742	1.383141134	3	126	1	4	7	8	4	2	1	4	4	n/a	24336.1204	n/a
24337.18737	1.433185519	3	127	1	4	7	8	5	2	1	4	4	n/a	24337.52072	n/a
24338.63737	1.383289843	3	128	1	4	7	8	6	2	1	4	4	n/a	24338.96964	n/a
24340.03746	1.383282406	3	129	1	4	7	8	7	2	2	4	4	n/a	24340.3707	n/a
24341.43758	1.316648609	3	130	1	4	7	8	8	2	1	4	4	n/a	24341.75451	n/a
24342.77099	1.38328848	3	131	1	4	7	8	9	2	1	4	4	n/a	24343.10418	n/a
24344.17107	1.416557695	3	132	1	4	7	8	10	1	2	4	4	n/a	24344.50427	n/a
24345.60437	1.383508587	3	133	1	4	7	8	11	2	2	4	4	n/a	24345.92106	n/a
24347.00466	1.383289138	3	134	1	4	7	8	12	2	2	4	4	n/a	24347.33784	n/a
24348.4048	1.383165572	3	135	1	4	7	8	13	1	1	4	4	n/a	24348.73797	n/a
24349.8051	1.399650832	3	136	1	4	7	8	14	2	2	4	4	n/a	24350.13803	n/a
24351.22149	1.38329432	3	137	1	4	7	8	15	1	1	4	4	n/a	24351.55478	n/a
24352.62154	1.383350044	3	138	1	4	7	8	16	2	2	4	4	n/a	24352.95485	n/a
24354.02136	1.367021889	3	139	1	4	7	8	17	1	1	4	4	n/a	24354.32163	n/a
24355.40514	1.366618173	3	140	1	4	7	8	18	1	1	4	4	n/a	24355.73838	n/a
24356.80529	1.183284644	3	141	1	4	9	9	1	3	3	4	4	n/a	n/a	n/a
24358.00534	1.233267449	3	142	1	4	9	9	2	3	3	4	4	n/a	n/a	n/a
24359.25502	1.183654315	3	143	1	4	9	9	3	3	3	4	4	n/a	n/a	n/a
24360.4554	1.182820785	3	144	1	4	9	9	4	3	3	4	4	n/a	n/a	n/a
24361.65513	1.190480782	3	145	1	4	9	9	5	3	3	4	4	n/a	n/a	n/a
24362.85558	1.183412332	3	146	1	4	9	9	6	3	3	4	4	n/a	n/a	n/a
24364.05574	1.183347548	3	147	1	4	9	9	7	3	3	4	4	n/a	n/a	n/a
24365.25588	1.18322991	3	148	1	4	9	9	8	3	3	4	4	n/a	n/a	n/a
24366.45583	1.18353026	3	149	1	4	9	9	9	3	3	4	4	n/a	n/a	n/a
24367.65621	1.183107182	3	150	1	4	9	9	10	3	3	4	4	n/a	n/a	n/a
