onset	duration	run_number	trial_number	att_task	fix_direction	bar_direction	bar_period	bar_step	fix_noise_ori	stim_noise_ori	fix_stair_val	stim_stair_val	response_val	probe_time	reaction_time
39525.52736	15.49675972	1	1	1	4	9	1	1	3	3	15	15	n/a	n/a	n/a
39541.22178	14.2343455	1	2	1	4	9	1	2	3	3	15	15	n/a	n/a	n/a
39555.65793	13.92953155	1	3	1	4	9	1	3	3	3	15	15	n/a	n/a	n/a
39569.79426	13.75745707	1	4	1	4	9	1	4	3	3	15	15	n/a	n/a	n/a
39583.74702	13.60601931	1	5	1	4	9	1	5	3	3	15	15	n/a	n/a	n/a
39597.54133	13.73219068	1	6	1	4	9	1	6	3	3	15	15	n/a	n/a	n/a
39611.47455	13.66656631	1	7	1	4	9	1	7	3	3	15	15	n/a	n/a	n/a
39625.34618	13.67491203	1	8	1	4	9	1	8	3	3	15	15	n/a	n/a	n/a
39639.2163	13.64289259	1	9	1	4	9	1	9	3	3	15	15	n/a	n/a	n/a
39653.06681	13.77573206	1	10	1	4	9	1	10	3	3	15	15	n/a	n/a	n/a
39667.09393	14.54455461	1	11	1	4	1	2	1	2	2	15	15	n/a	39670.59135	n/a
39681.83185	15.24192958	1	12	1	4	1	2	2	2	1	15	15	n/a	39685.41299	n/a
39697.28469	15.51825316	1	13	1	4	1	2	3	2	1	15	15	n/a	39701.01915	n/a
39713.02569	15.78062954	1	14	1	4	1	2	4	2	2	15	15	n/a	39716.81033	n/a
39729.02086	15.50754812	1	15	1	4	1	2	5	1	2	15	15	n/a	39732.75017	n/a
39744.74971	15.38789858	1	16	1	4	1	2	6	2	2	15	15	n/a	39748.47138	n/a
39760.35937	15.39845093	1	17	1	4	1	2	7	2	2	15	15	n/a	39764.1231	n/a
39775.97675	15.72117715	1	18	1	4	1	2	8	2	2	15	15	n/a	39779.7017	n/a
39791.92577	15.76524562	1	19	1	4	1	2	9	2	2	15	15	n/a	39795.75737	n/a
39807.91192	15.64898819	1	20	1	4	1	2	10	2	2	15	15	n/a	39811.68303	n/a
39823.78043	15.34473172	1	21	1	4	1	2	11	2	1	15	15	n/a	39827.51663	n/a
39839.34851	15.43048421	1	22	1	4	1	2	12	1	1	15	15	n/a	39843.15225	n/a
39855.00538	15.62342947	1	23	1	4	1	2	13	2	2	15	15	n/a	39858.81463	n/a
39870.85375	15.72738399	1	24	1	4	1	2	14	1	1	15	15	n/a	39874.62635	n/a
39886.79932	15.57588616	1	25	1	4	1	2	15	1	1	15	15	n/a	39890.51246	n/a
39902.59674	15.82309074	1	26	1	4	1	2	16	1	1	15	15	n/a	39906.38964	n/a
39918.63721	15.52358965	1	27	1	4	1	2	17	1	1	15	15	n/a	39922.40821	n/a
39934.37084	15.85976272	1	28	1	4	1	2	18	1	2	15	15	n/a	39938.25898	n/a
39950.46061	15.93936328	1	29	1	4	1	2	19	2	1	15	15	n/a	39954.34752	n/a
39966.63248	16.09064703	1	30	1	4	1	2	20	1	2	15	15	n/a	39970.45608	n/a
39982.95372	16.00830618	1	31	1	4	1	2	21	2	1	15	15	n/a	39986.91605	n/a
39999.18695	15.95256217	1	32	1	4	1	2	22	2	2	15	15	n/a	40003.03426	n/a
40015.35861	15.50295661	1	33	1	4	1	2	23	1	1	15	15	n/a	40019.11361	n/a
40031.08178	15.58525968	1	34	1	4	1	2	24	2	2	15	15	n/a	40034.83359	n/a
40046.88162	15.36943157	1	35	1	4	1	2	25	2	1	15	15	n/a	40050.61327	n/a
40062.46762	15.73345166	1	36	1	4	1	2	26	2	2	15	15	n/a	40066.1989	n/a
40078.42729	15.89822168	1	37	1	4	1	2	27	1	1	15	15	n/a	40082.48573	n/a
40094.56123	16.04586663	1	38	1	4	1	2	28	1	1	15	15	n/a	40098.54148	n/a
40110.84541	15.99997725	1	39	1	4	1	2	29	2	2	15	15	n/a	40114.7012	n/a
40127.08146	16.03301259	1	40	1	4	1	2	30	1	1	15	15	n/a	40131.02541	n/a
40143.34556	15.7933298	1	41	1	4	1	2	31	1	1	15	15	n/a	40147.27615	n/a
40159.35879	14.78377138	1	42	1	4	1	2	32	2	1	15	15	n/a	40163.0811	n/a
40174.43931	14.67283199	1	43	1	4	9	3	1	3	3	15	15	n/a	n/a	n/a
40189.33288	13.85211941	1	44	1	4	9	3	2	3	3	15	15	n/a	n/a	n/a
40203.37507	13.74169047	1	45	1	4	9	3	3	3	3	15	15	n/a	n/a	n/a
40217.33004	15.01887947	1	46	1	4	9	3	4	3	3	15	15	n/a	n/a	n/a
40232.56223	15.07859195	1	47	1	4	9	3	5	3	3	15	15	n/a	n/a	n/a
40247.85271	14.96408758	1	48	1	4	9	3	6	3	3	15	15	n/a	n/a	n/a
40263.01932	14.64648976	1	49	1	4	9	3	7	3	3	15	15	n/a	n/a	n/a
40277.86461	14.59277235	1	50	1	4	9	3	8	3	3	15	15	n/a	n/a	n/a
40292.66398	14.49011095	1	51	1	4	9	3	9	3	3	15	15	n/a	n/a	n/a
40307.36842	14.3010474	1	52	1	4	9	3	10	3	3	15	15	n/a	n/a	n/a
40321.95259	16.53129689	1	53	1	4	3	4	1	2	1	15	15	n/a	40325.93807	n/a
40338.71173	18.20392351	1	54	1	4	3	4	2	1	2	15	15	n/a	40343.08107	n/a
40357.17833	18.62124941	1	55	1	4	3	4	3	2	1	15	15	n/a	40361.74134	n/a
40376.06246	18.65569987	1	56	1	4	3	4	4	2	2	15	15	n/a	40380.6623	n/a
40394.97696	18.63521614	1	57	1	4	3	4	5	1	1	15	15	n/a	40399.56852	n/a
40413.87713	18.55796869	1	58	1	4	3	4	6	2	1	15	15	n/a	40418.47553	n/a
40432.68885	18.65781705	1	59	1	4	3	4	7	1	1	15	15	n/a	40437.27408	n/a
40451.60539	18.74528703	1	60	1	4	3	4	8	1	2	15	15	n/a	40456.19142	n/a
40470.61889	17.80676691	1	61	1	4	3	4	9	1	2	15	15	n/a	40475.15028	n/a
40488.68657	17.62431746	1	62	1	4	3	4	10	2	1	15	15	n/a	40493.05498	n/a
40506.55393	17.54100804	1	63	1	4	3	4	11	1	1	15	15	n/a	40510.89679	n/a
40524.34484	17.81812588	1	64	1	4	3	4	12	2	1	15	15	n/a	40528.69011	n/a
40542.41248	18.26230268	1	65	1	4	3	4	13	2	1	15	15	n/a	40546.80199	n/a
40560.94161	18.34537845	1	66	1	4	3	4	14	1	2	15	15	n/a	40565.47357	n/a
40579.54991	18.53293343	1	67	1	4	3	4	15	1	2	15	15	n/a	40584.06941	n/a
40598.34066	18.38813395	1	68	1	4	3	4	16	2	1	15	15	n/a	40602.87811	n/a
40616.98396	18.1230553	1	69	1	4	3	4	17	2	1	15	15	n/a	40621.39212	n/a
40635.35425	16.43769946	1	70	1	4	3	4	18	2	1	15	15	n/a	40639.43297	n/a
40652.00531	13.91536222	1	71	1	4	9	5	1	3	3	15	15	n/a	n/a	n/a
40666.10287	13.20034085	1	72	1	4	9	5	2	3	3	15	15	n/a	n/a	n/a
40679.50693	14.14960104	1	73	1	4	9	5	3	3	3	15	15	n/a	n/a	n/a
40693.85972	14.15786365	1	74	1	4	9	5	4	3	3	15	15	n/a	n/a	n/a
40708.21773	14.19898484	1	75	1	4	9	5	5	3	3	15	15	n/a	n/a	n/a
40722.62905	14.39133944	1	76	1	4	9	5	6	3	3	15	15	n/a	n/a	n/a
40737.22627	14.16134341	1	77	1	4	9	5	7	3	3	15	15	n/a	n/a	n/a
40751.58935	14.18680186	1	78	1	4	9	5	8	3	3	15	15	n/a	n/a	n/a
40765.97833	14.21636326	1	79	1	4	9	5	9	3	3	15	15	n/a	n/a	n/a
40780.39058	14.21871007	1	80	1	4	9	5	10	3	3	15	15	n/a	n/a	n/a
40794.83379	15.03166246	1	81	1	4	5	6	1	2	2	15	15	n/a	40798.49338	n/a
40810.07212	15.46664403	1	82	1	4	5	6	2	2	1	15	15	n/a	40813.77949	n/a
40825.75633	15.79893234	1	83	1	4	5	6	3	1	1	15	15	n/a	40829.62843	n/a
40841.7732	16.16899369	1	84	1	4	5	6	4	2	1	15	15	n/a	40845.72915	n/a
40858.17053	16.14884983	1	85	1	4	5	6	5	1	1	15	15	n/a	40862.14674	n/a
40874.54705	16.45625095	1	86	1	4	5	6	6	2	2	15	15	n/a	40878.58391	n/a
40891.23802	16.24898976	1	87	1	4	5	6	7	1	1	15	15	n/a	40895.24509	n/a
40907.70734	16.55250989	1	88	1	4	5	6	8	2	2	15	15	n/a	40911.55324	n/a
40924.4818	16.40240867	1	89	1	4	5	6	9	1	2	15	15	n/a	40928.38753	n/a
40941.09531	14.87264133	1	90	1	4	5	6	10	1	1	15	15	n/a	40944.64452	n/a
40956.20674	16.605733	1	91	1	4	5	6	11	1	1	15	15	n/a	40960.37876	n/a
40973.04766	17.02585429	1	92	1	4	5	6	12	2	2	15	15	n/a	40977.14903	n/a
40990.31625	16.77859347	1	93	1	4	5	6	13	2	2	15	15	n/a	40994.39559	n/a
41007.31884	16.74564105	1	94	1	4	5	6	14	1	2	15	15	n/a	41011.42596	n/a
41024.3011	16.36817129	1	95	1	4	5	6	15	1	2	15	15	n/a	41028.23924	n/a
41040.8929	16.43695574	1	96	1	4	5	6	16	2	1	15	15	n/a	41045.00461	n/a
41057.56574	16.44413618	1	97	1	4	5	6	17	2	1	15	15	n/a	41061.50101	n/a
41074.24452	16.57378017	1	98	1	4	5	6	18	2	1	15	15	n/a	41078.30183	n/a
41091.04944	16.74180348	1	99	1	4	5	6	19	1	2	15	15	n/a	41095.08699	n/a
41108.02793	16.73077291	1	100	1	4	5	6	20	2	2	15	15	n/a	41112.03823	n/a
41124.98103	16.6383942	1	101	1	4	5	6	21	2	2	15	15	n/a	41129.03051	n/a
41141.84781	16.50524848	1	102	1	4	5	6	22	1	2	15	15	n/a	41145.86489	n/a
41158.58459	16.56201376	1	103	1	4	5	6	23	2	1	15	15	n/a	41162.73447	n/a
41175.3867	16.90924483	1	104	1	4	5	6	24	2	1	15	15	n/a	41179.43583	n/a
41192.51389	16.37678606	1	105	1	4	5	6	25	2	2	15	15	n/a	41196.46572	n/a
41209.12307	16.26037615	1	106	1	4	5	6	26	1	2	15	15	n/a	41213.03964	n/a
41225.59945	16.08659121	1	107	1	4	5	6	27	2	1	15	15	n/a	41229.46967	n/a
41241.91425	16.37496869	1	108	1	4	5	6	28	1	1	15	15	n/a	41245.8922	n/a
41258.52751	16.71865301	1	109	1	4	5	6	29	1	2	15	15	n/a	41262.52302	n/a
41275.47873	15.15776238	1	110	1	4	5	6	30	2	2	15	15	n/a	41279.44051	n/a
41290.83801	16.13356205	1	111	1	4	5	6	31	2	1	15	15	n/a	41294.7419	n/a
41307.19508	15.4093436	1	112	1	4	5	6	32	2	1	15	15	n/a	41310.88743	n/a
41322.83251	13.97516362	1	113	1	4	9	7	1	3	3	15	15	n/a	n/a	n/a
41337.00165	14.40313872	1	114	1	4	9	7	2	3	3	15	15	n/a	n/a	n/a
41351.59791	14.09864992	1	115	1	4	9	7	3	3	3	15	15	n/a	n/a	n/a
41365.9048	14.53770044	1	116	1	4	9	7	4	3	3	15	15	n/a	n/a	n/a
41380.6325	14.51848102	1	117	1	4	9	7	5	3	3	15	15	n/a	n/a	n/a
41395.3548	14.31691258	1	118	1	4	9	7	6	3	3	15	15	n/a	n/a	n/a
41409.87763	14.43809848	1	119	1	4	9	7	7	3	3	15	15	n/a	n/a	n/a
41424.51987	14.451785	1	120	1	4	9	7	8	3	3	15	15	n/a	n/a	n/a
41439.17245	14.41512805	1	121	1	4	9	7	9	3	3	15	15	n/a	n/a	n/a
41453.78507	14.36387657	1	122	1	4	9	7	10	3	3	15	15	n/a	n/a	n/a
41468.40181	16.59623454	1	123	1	4	7	8	1	2	1	15	15	n/a	41472.42963	n/a
41485.22502	18.72076666	1	124	1	4	7	8	2	2	1	15	15	n/a	41489.67428	n/a
41504.20319	18.87194954	1	125	1	4	7	8	3	2	2	15	15	n/a	41508.83	n/a
41523.34295	18.77449635	1	126	1	4	7	8	4	1	2	15	15	n/a	41527.95077	n/a
41542.38192	18.7376607	1	127	1	4	7	8	5	1	1	15	15	n/a	41546.95632	n/a
41561.38328	18.40204647	1	128	1	4	7	8	6	1	1	15	15	n/a	41566.01561	n/a
41580.04925	18.34507532	1	129	1	4	7	8	7	2	1	15	15	n/a	41584.73927	n/a
41598.65906	18.09185648	1	130	1	4	7	8	8	2	2	15	15	n/a	41603.14575	n/a
41617.01011	17.97007345	1	131	1	4	7	8	9	1	1	15	15	n/a	41621.31491	n/a
41635.2483	18.30070603	1	132	1	4	7	8	10	1	2	15	15	n/a	41639.69274	n/a
41653.81329	18.63808952	1	133	1	4	7	8	11	1	2	15	15	n/a	41658.19805	n/a
41672.72037	18.92137386	1	134	1	4	7	8	12	1	2	15	15	n/a	41677.30327	n/a
41691.88972	18.54840994	1	135	1	4	7	8	13	2	1	15	15	n/a	41696.28097	n/a
41710.70157	19.05231173	1	136	1	4	7	8	14	1	2	15	15	n/a	41715.13462	n/a
41730.02922	20.07716898	1	137	1	4	7	8	15	1	1	15	15	n/a	41735.11489	n/a
41750.38584	18.82242568	1	138	1	4	7	8	16	2	2	15	15	n/a	41755.0513	n/a
41769.46106	17.16497003	1	139	1	4	7	8	17	2	1	15	15	n/a	41773.65741	n/a
41786.88338	16.16885632	1	140	1	4	7	8	18	1	2	15	15	n/a	41790.78451	n/a
41803.2536	13.85006346	1	141	1	4	9	9	1	3	3	15	15	n/a	n/a	n/a
41817.29592	14.64848971	1	142	1	4	9	9	2	3	3	15	15	n/a	n/a	n/a
41832.14369	14.05348445	1	143	1	4	9	9	3	3	3	15	15	n/a	n/a	n/a
41846.40168	14.39238413	1	144	1	4	9	9	4	3	3	15	15	n/a	n/a	n/a
41860.97552	13.61792851	1	145	1	4	9	9	5	3	3	15	15	n/a	n/a	n/a
41874.77971	14.36159624	1	146	1	4	9	9	6	3	3	15	15	n/a	n/a	n/a
41889.34064	14.49919899	1	147	1	4	9	9	7	3	3	15	15	n/a	n/a	n/a
41904.03946	14.32181071	1	148	1	4	9	9	8	3	3	15	15	n/a	n/a	n/a
41918.55773	14.31886452	1	149	1	4	9	9	9	3	3	15	15	n/a	n/a	n/a
41933.07894	14.39209183	1	150	1	4	9	9	10	3	3	15	15	n/a	n/a	n/a
