onset	duration	run_number	trial_number	att_task	fix_direction	bar_direction	bar_period	bar_step	fix_noise_ori	stim_noise_ori	fix_stair_val	stim_stair_val	response_val	probe_time	reaction_time
34928.4675	13.69543939	2	1	1	2	9	1	1	3	3	15	15	n/a	n/a	n/a
34942.35406	15.40312843	2	2	1	2	9	1	2	3	3	15	15	n/a	n/a	n/a
34957.9411	14.11934222	2	3	1	2	9	1	3	3	3	15	15	n/a	n/a	n/a
34972.25954	14.24477109	2	4	1	2	9	1	4	3	3	15	15	n/a	n/a	n/a
34986.76405	13.84409414	2	5	1	2	9	1	5	3	3	15	15	n/a	n/a	n/a
35000.80708	13.96161157	2	6	1	2	9	1	6	3	3	15	15	n/a	n/a	n/a
35014.95704	13.25244207	2	7	1	2	9	1	7	3	3	15	15	n/a	n/a	n/a
35028.39662	13.26802536	2	8	1	2	9	1	8	3	3	15	15	n/a	n/a	n/a
35041.85488	13.07270896	2	9	1	2	9	1	9	3	3	15	15	n/a	n/a	n/a
35055.1151	13.03308333	2	10	1	2	9	1	10	3	3	15	15	n/a	n/a	n/a
35068.37147	13.28329808	2	11	1	2	1	2	1	1	2	15	15	n/a	35071.56317	n/a
35081.83578	13.79786289	2	12	1	2	1	2	2	1	2	15	15	n/a	35085.056	n/a
35095.82839	14.0913314	2	13	1	2	1	2	3	2	2	15	15	n/a	35099.18175	n/a
35110.11408	14.38896685	2	14	1	2	1	2	4	2	2	15	15	n/a	35113.49447	n/a
35124.70757	14.55133754	2	15	1	2	1	2	5	1	2	15	15	n/a	35128.22957	n/a
35139.46501	14.53656254	2	16	1	2	1	2	6	1	2	15	15	n/a	35142.94169	n/a
35154.21373	14.7204149	2	17	1	2	1	2	7	2	1	15	15	n/a	35157.78105	n/a
35169.15446	14.40869281	2	18	1	2	1	2	8	2	1	15	15	n/a	35172.64668	n/a
35183.76754	14.36597841	2	19	1	2	1	2	9	2	1	15	15	n/a	35187.28042	n/a
35198.33073	14.36475935	2	20	1	2	1	2	10	1	2	15	15	n/a	35201.79324	n/a
35212.89775	14.4656989	2	21	1	2	1	2	11	2	1	15	15	n/a	35216.39688	n/a
35227.56063	14.12701144	2	22	1	2	1	2	12	1	1	15	15	n/a	35231.00904	n/a
35241.90251	15.0419231	2	23	1	2	1	2	13	1	1	15	15	n/a	35245.33471	n/a
35257.14606	14.16435508	2	24	1	2	1	2	14	1	1	15	15	n/a	35260.59264	n/a
35271.51369	14.19877492	2	25	1	2	1	2	15	2	2	15	15	n/a	35274.94551	n/a
35285.91325	13.86201697	2	26	1	2	1	2	16	2	2	15	15	n/a	35289.27573	n/a
35299.9746	13.65490982	2	27	1	2	1	2	17	2	2	15	15	n/a	35303.29203	n/a
35313.8279	13.29522415	2	28	1	2	1	2	18	2	1	15	15	n/a	35317.05482	n/a
35327.31673	13.03135959	2	29	1	2	9	3	1	3	3	15	15	n/a	n/a	n/a
35340.53426	13.14892782	2	30	1	2	9	3	2	3	3	15	15	n/a	n/a	n/a
35353.86374	13.02180055	2	31	1	2	9	3	3	3	3	15	15	n/a	n/a	n/a
35367.06588	13.01822184	2	32	1	2	9	3	4	3	3	15	15	n/a	n/a	n/a
35380.26681	13.03596007	2	33	1	2	9	3	5	3	3	15	15	n/a	n/a	n/a
35393.48765	13.01965829	2	34	1	2	9	3	6	3	3	15	15	n/a	n/a	n/a
35406.68698	13.02017158	2	35	1	2	9	3	7	3	3	15	15	n/a	n/a	n/a
35419.89037	13.01625124	2	36	1	2	9	3	8	3	3	15	15	n/a	n/a	n/a
35433.08825	13.02529873	2	37	1	2	9	3	9	3	3	15	15	n/a	n/a	n/a
35446.28858	13.21101676	2	38	1	2	9	3	10	3	3	15	15	n/a	n/a	n/a
35459.70283	13.6701214	2	39	1	2	5	4	1	1	2	15	15	n/a	35463.05172	n/a
35473.56825	13.83350179	2	40	1	2	5	4	2	2	1	15	15	n/a	35476.94724	n/a
35487.58393	13.75656995	2	41	1	2	5	4	3	1	1	15	15	n/a	35490.89119	n/a
35501.54122	14.18534851	2	42	1	2	5	4	4	1	2	15	15	n/a	35504.95861	n/a
35515.93044	14.23762197	2	43	1	2	5	4	5	2	1	15	15	n/a	35519.38145	n/a
35530.36516	14.33557696	2	44	1	2	5	4	6	1	2	15	15	n/a	35533.81464	n/a
35544.89669	14.43226848	2	45	1	2	5	4	7	1	2	15	15	n/a	35548.34936	n/a
35559.54252	14.49568545	2	46	1	2	5	4	8	2	2	15	15	n/a	35563.07689	n/a
35574.23554	14.44184272	2	47	1	2	5	4	9	1	2	15	15	n/a	35577.68481	n/a
35588.87516	14.36222032	2	48	1	2	5	4	10	2	1	15	15	n/a	35592.39118	n/a
35603.43838	14.80590502	2	49	1	2	5	4	11	1	2	15	15	n/a	35606.98407	n/a
35618.45399	15.15179956	2	50	1	2	5	4	12	2	2	15	15	n/a	35622.02934	n/a
35633.82112	15.17707578	2	51	1	2	5	4	13	2	2	15	15	n/a	35637.53693	n/a
35649.20339	14.80935727	2	52	1	2	5	4	14	1	1	15	15	n/a	35652.76231	n/a
35664.22431	14.60896627	2	53	1	2	5	4	15	2	1	15	15	n/a	35667.76781	n/a
35679.03449	14.17162375	2	54	1	2	5	4	16	1	2	15	15	n/a	35682.55824	n/a
35693.40492	13.62782727	2	55	1	2	5	4	17	1	2	15	15	n/a	35696.72316	n/a
35707.21833	13.17845653	2	56	1	2	5	4	18	1	2	15	15	n/a	35710.39335	n/a
35720.59302	13.05081415	2	57	1	2	9	5	1	3	3	15	15	n/a	n/a	n/a
35733.82692	13.0226169	2	58	1	2	9	5	2	3	3	15	15	n/a	n/a	n/a
35747.02682	13.01575815	2	59	1	2	9	5	3	3	3	15	15	n/a	n/a	n/a
35760.22468	13.14118472	2	60	1	2	9	5	4	3	3	15	15	n/a	n/a	n/a
35773.54778	13.15215509	2	61	1	2	9	5	5	3	3	15	15	n/a	n/a	n/a
35786.87827	13.19801764	2	62	1	2	9	5	6	3	3	15	15	n/a	n/a	n/a
35800.27435	13.77428205	2	63	1	2	9	5	7	3	3	15	15	n/a	n/a	n/a
35814.24539	14.44712618	2	64	1	2	9	5	8	3	3	15	15	n/a	n/a	n/a
35828.88835	14.17664335	2	65	1	2	9	5	9	3	3	15	15	n/a	n/a	n/a
35843.26211	14.15352662	2	66	1	2	9	5	10	3	3	15	15	n/a	n/a	n/a
35857.63818	14.45162995	2	67	1	2	1	6	1	2	2	15	15	n/a	35861.07647	n/a
35872.29155	14.68509005	2	68	1	2	1	6	2	1	1	15	15	n/a	35875.80884	n/a
35887.17873	15.37453147	2	69	1	2	1	6	3	1	2	15	15	n/a	35890.78847	n/a
35902.76881	15.61317315	2	70	1	2	1	6	4	1	1	15	15	n/a	35906.4402	n/a
35918.58643	15.64520687	2	71	1	2	1	6	5	1	2	15	15	n/a	35922.29752	n/a
35934.44758	15.759957	2	72	1	2	1	6	6	2	2	15	15	n/a	35938.17854	n/a
35950.42606	15.46642052	2	73	1	2	1	6	7	2	2	15	15	n/a	35954.18365	n/a
35966.1089	15.63838306	2	74	1	2	1	6	8	1	1	15	15	n/a	35969.84312	n/a
35981.96593	15.41846146	2	75	1	2	1	6	9	1	1	15	15	n/a	35985.70404	n/a
35997.60123	15.5414538	2	76	1	2	1	6	10	1	1	15	15	n/a	36001.32867	n/a
36013.36993	15.4134593	2	77	1	2	1	6	11	1	1	15	15	n/a	36017.1007	n/a
36029.00313	15.76682586	2	78	1	2	1	6	12	2	1	15	15	n/a	36032.99466	n/a
36044.98999	15.46266176	2	79	1	2	1	6	13	2	2	15	15	n/a	36048.69966	n/a
36060.67053	15.74413311	2	80	1	2	1	6	14	1	2	15	15	n/a	36064.76701	n/a
36076.63228	15.60876044	2	81	1	2	1	6	15	2	2	15	15	n/a	36080.31627	n/a
36092.44508	14.75110086	2	82	1	2	1	6	16	2	1	15	15	n/a	36095.89271	n/a
36107.40309	14.83205121	2	83	1	2	1	6	17	2	2	15	15	n/a	36110.93587	n/a
36122.43644	14.44770074	2	84	1	2	1	6	18	1	1	15	15	n/a	36125.84561	n/a
36137.0871	14.04433446	2	85	1	2	9	7	1	3	3	15	15	n/a	n/a	n/a
36151.31572	14.1228407	2	86	1	2	9	7	2	3	3	15	15	n/a	n/a	n/a
36165.64276	13.96334074	2	87	1	2	9	7	3	3	3	15	15	n/a	n/a	n/a
36179.80183	14.03657586	2	88	1	2	9	7	4	3	3	15	15	n/a	n/a	n/a
36194.03669	13.99055164	2	89	1	2	9	7	5	3	3	15	15	n/a	n/a	n/a
36208.21902	14.50806161	2	90	1	2	9	7	6	3	3	15	15	n/a	n/a	n/a
36222.92826	14.40103145	2	91	1	2	9	7	7	3	3	15	15	n/a	n/a	n/a
36237.5288	14.48511941	2	92	1	2	9	7	8	3	3	15	15	n/a	n/a	n/a
36252.21134	14.18864031	2	93	1	2	9	7	9	3	3	15	15	n/a	n/a	n/a
36266.59802	14.57467296	2	94	1	2	9	7	10	3	3	15	15	n/a	n/a	n/a
36281.38626	14.24371239	2	95	1	2	5	8	1	1	1	15	15	n/a	36284.83081	n/a
36295.83153	14.96155045	2	96	1	2	5	8	2	1	1	15	15	n/a	36299.30512	n/a
36310.99931	15.02794981	2	97	1	2	5	8	3	2	2	15	15	n/a	36314.6503	n/a
36326.23096	15.24944748	2	98	1	2	5	8	4	1	1	15	15	n/a	36329.92839	n/a
36341.69997	15.35561299	2	99	1	2	5	8	5	1	2	15	15	n/a	36345.41898	n/a
36357.27382	15.88558017	2	100	1	2	5	8	6	2	2	15	15	n/a	36360.97069	n/a
36373.37898	15.46634019	2	101	1	2	5	8	7	1	1	15	15	n/a	36377.16628	n/a
36389.06963	15.86422517	2	102	1	2	5	8	8	1	1	15	15	n/a	36393.10227	n/a
36405.14917	15.18212047	2	103	1	2	5	8	9	1	1	15	15	n/a	36408.87525	n/a
36420.53533	15.59997408	2	104	1	2	5	8	10	1	2	15	15	n/a	36424.2893	n/a
36436.33024	15.33717732	2	105	1	2	5	8	11	2	1	15	15	n/a	36439.90007	n/a
36451.95477	14.94663895	2	106	1	2	5	8	12	1	1	15	15	n/a	36455.53608	n/a
36467.10238	15.23066775	2	107	1	2	5	8	13	1	1	15	15	n/a	36470.79566	n/a
36482.53144	15.67264068	2	108	1	2	5	8	14	2	2	15	15	n/a	36486.08622	n/a
36498.40186	15.47931892	2	109	1	2	5	8	15	1	1	15	15	n/a	36502.30614	n/a
36514.08247	14.98352666	2	110	1	2	5	8	16	2	2	15	15	n/a	36517.78071	n/a
36529.42298	14.62407671	2	111	1	2	5	8	17	2	1	15	15	n/a	36532.82918	n/a
36544.24451	14.02913696	2	112	1	2	5	8	18	1	2	15	15	n/a	36547.72239	n/a
36558.46573	13.52175579	2	113	1	2	9	9	1	3	3	15	15	n/a	n/a	n/a
36572.16914	13.45625029	2	114	1	2	9	9	2	3	3	15	15	n/a	n/a	n/a
36585.80655	13.48180229	2	115	1	2	9	9	3	3	3	15	15	n/a	n/a	n/a
36599.48102	13.29942089	2	116	1	2	9	9	4	3	3	15	15	n/a	n/a	n/a
36612.9582	13.48452109	2	117	1	2	9	9	5	3	3	15	15	n/a	n/a	n/a
36626.67316	13.67063913	2	118	1	2	9	9	6	3	3	15	15	n/a	n/a	n/a
36640.52192	13.5163464	2	119	1	2	9	9	7	3	3	15	15	n/a	n/a	n/a
36654.24822	13.43670878	2	120	1	2	9	9	8	3	3	15	15	n/a	n/a	n/a
36667.85846	13.40492537	2	121	1	2	9	9	9	3	3	15	15	n/a	n/a	n/a
36681.44157	13.54093282	2	122	1	2	9	9	10	3	3	15	15	n/a	n/a	n/a
