onset	duration	run_number	trial_number	att_task	fix_direction	bar_direction	bar_period	bar_step	fix_noise_ori	stim_noise_ori	fix_stair_val	stim_stair_val	response_val	probe_time	reaction_time
37381.64781	13.63481332	1	1	1	3	9	1	1	3	3	15	15	n/a	n/a	n/a
37395.46443	13.53250616	1	2	1	3	9	1	2	3	3	15	15	n/a	n/a	n/a
37409.18049	13.47557419	1	3	1	3	9	1	3	3	3	15	15	n/a	n/a	n/a
37422.85924	14.24836092	1	4	1	3	9	1	4	3	3	15	15	n/a	n/a	n/a
37437.30787	13.84044837	1	5	1	3	9	1	5	3	3	15	15	n/a	n/a	n/a
37451.34029	13.73520941	1	6	1	3	9	1	6	3	3	15	15	n/a	n/a	n/a
37465.2714	13.43114489	1	7	1	3	9	1	7	3	3	15	15	n/a	n/a	n/a
37478.90346	13.70728535	1	8	1	3	9	1	8	3	3	15	15	n/a	n/a	n/a
37492.80469	13.66669467	1	9	1	3	9	1	9	3	3	15	15	n/a	n/a	n/a
37506.65664	13.47047144	1	10	1	3	9	1	10	3	3	15	15	n/a	n/a	n/a
37520.3694	14.06307559	1	11	1	3	1	2	1	1	2	15	15	n/a	37523.71587	n/a
37534.62857	14.32564544	1	12	1	3	1	2	2	2	1	15	15	n/a	37537.96861	n/a
37549.15491	15.57921963	1	13	1	3	1	2	3	1	2	15	15	n/a	37552.85724	n/a
37564.94154	15.5553162	1	14	1	3	1	2	4	1	2	15	15	n/a	37568.7483	n/a
37580.80475	14.89331177	1	15	1	3	1	2	5	1	1	15	15	n/a	37584.41878	n/a
37595.90389	15.52342425	1	16	1	3	1	2	6	2	2	15	15	n/a	37599.78808	n/a
37611.62409	15.31151989	1	17	1	3	1	2	7	2	1	15	15	n/a	37615.08403	n/a
37627.1337	15.7290835	1	18	1	3	1	2	8	1	2	15	15	n/a	37631.0222	n/a
37643.06635	15.73899763	1	19	1	3	1	2	9	1	1	15	15	n/a	37646.84116	n/a
37659.02342	15.28050307	1	20	1	3	1	2	10	2	1	15	15	n/a	37662.70242	n/a
37674.50535	16.30830711	1	21	1	3	1	2	11	1	2	15	15	n/a	37678.47755	n/a
37691.02595	15.39749782	1	22	1	3	1	2	12	2	1	15	15	n/a	37694.84072	n/a
37706.62256	15.2000163	1	23	1	3	1	2	13	2	2	15	15	n/a	37710.17951	n/a
37722.02363	15.05342554	1	24	1	3	1	2	14	2	1	15	15	n/a	37725.64324	n/a
37737.28978	15.13549375	1	25	1	3	1	2	15	1	2	15	15	n/a	37740.93786	n/a
37752.62594	14.86837932	1	26	1	3	1	2	16	2	2	15	15	n/a	37756.20329	n/a
37767.68657	14.51309128	1	27	1	3	1	2	17	2	2	15	15	n/a	37771.24961	n/a
37782.39883	14.04810855	1	28	1	3	1	2	18	2	1	15	15	n/a	37785.84786	n/a
37796.64456	13.33784394	1	29	1	3	9	3	1	3	3	15	15	n/a	n/a	n/a
37810.18179	13.57353152	1	30	1	3	9	3	2	3	3	15	15	n/a	n/a	n/a
37823.93983	13.45491386	1	31	1	3	9	3	3	3	3	15	15	n/a	n/a	n/a
37837.59071	13.65573452	1	32	1	3	9	3	4	3	3	15	15	n/a	n/a	n/a
37851.43061	13.53383604	1	33	1	3	9	3	5	3	3	15	15	n/a	n/a	n/a
37865.15032	13.55281439	1	34	1	3	9	3	6	3	3	15	15	n/a	n/a	n/a
37878.90014	13.48658724	1	35	1	3	9	3	7	3	3	15	15	n/a	n/a	n/a
37892.56925	13.43966526	1	36	1	3	9	3	8	3	3	15	15	n/a	n/a	n/a
37906.2001	13.45722217	1	37	1	3	9	3	9	3	3	15	15	n/a	n/a	n/a
37919.85111	13.59851109	1	38	1	3	9	3	10	3	3	15	15	n/a	n/a	n/a
37933.65661	13.85111203	1	39	1	3	5	4	1	1	2	15	15	n/a	37936.95605	n/a
37947.70513	14.2907872	1	40	1	3	5	4	2	2	1	15	15	n/a	37951.10501	n/a
37962.2026	14.51725508	1	41	1	3	5	4	3	1	1	15	15	n/a	37965.69698	n/a
37976.9187	14.75056711	1	42	1	3	5	4	4	2	2	15	15	n/a	37980.43983	n/a
37991.86744	14.82690828	1	43	1	3	5	4	5	2	2	15	15	n/a	37995.36895	n/a
38006.89343	15.12183915	1	44	1	3	5	4	6	2	1	15	15	n/a	38010.52494	n/a
38022.22873	15.26580596	1	45	1	3	5	4	7	2	1	15	15	n/a	38025.9857	n/a
38037.70321	15.25935715	1	46	1	3	5	4	8	1	1	15	15	n/a	38041.39802	n/a
38053.16671	15.08924893	1	47	1	3	5	4	9	2	1	15	15	n/a	38056.7635	n/a
38068.46884	15.32594136	1	48	1	3	5	4	10	1	1	15	15	n/a	38072.2321	n/a
38084.00037	15.40976487	1	49	1	3	5	4	11	2	2	15	15	n/a	38087.68988	n/a
38099.62693	15.21431045	1	50	1	3	5	4	12	2	1	15	15	n/a	38103.25201	n/a
38115.05648	15.11273605	1	51	1	3	5	4	13	1	1	15	15	n/a	38118.90692	n/a
38130.48586	15.01016611	1	52	1	3	5	4	14	1	2	15	15	n/a	38134.1042	n/a
38145.70162	14.66868523	1	53	1	3	5	4	15	2	1	15	15	n/a	38149.35213	n/a
38160.57015	14.98398556	1	54	1	3	5	4	16	2	1	15	15	n/a	38164.30213	n/a
38175.75032	14.57822217	1	55	1	3	5	4	17	2	1	15	15	n/a	38179.2655	n/a
38190.53092	14.05635035	1	56	1	3	5	4	18	2	2	15	15	n/a	38193.92274	n/a
38204.78397	13.21309707	1	57	1	3	9	5	1	3	3	15	15	n/a	n/a	n/a
38218.18837	13.35259701	1	58	1	3	9	5	2	3	3	15	15	n/a	n/a	n/a
38231.72299	13.44935077	1	59	1	3	9	5	3	3	3	15	15	n/a	n/a	n/a
38245.35613	13.33729955	1	60	1	3	9	5	4	3	3	15	15	n/a	n/a	n/a
38258.87597	13.35887608	1	61	1	3	9	5	5	3	3	15	15	n/a	n/a	n/a
38272.42123	13.23180689	1	62	1	3	9	5	6	3	3	15	15	n/a	n/a	n/a
38285.84051	13.05001569	1	63	1	3	9	5	7	3	3	15	15	n/a	n/a	n/a
38299.08157	13.04125436	1	64	1	3	9	5	8	3	3	15	15	n/a	n/a	n/a
38312.30362	13.0211645	1	65	1	3	9	5	9	3	3	15	15	n/a	n/a	n/a
38325.50723	13.03886419	1	66	1	3	9	5	10	3	3	15	15	n/a	n/a	n/a
38338.76031	13.30452626	1	67	1	3	1	6	1	2	1	15	15	n/a	38342.00729	n/a
38352.25055	13.620643	1	68	1	3	1	6	2	1	2	15	15	n/a	38355.53642	n/a
38366.06774	14.1254608	1	69	1	3	1	6	3	1	2	15	15	n/a	38369.39461	n/a
38380.39354	14.22207949	1	70	1	3	1	6	4	2	1	15	15	n/a	38383.79521	n/a
38394.80874	14.30253743	1	71	1	3	1	6	5	2	1	15	15	n/a	38398.21658	n/a
38409.31064	14.40321409	1	72	1	3	1	6	6	2	2	15	15	n/a	38412.71625	n/a
38423.91265	14.48788234	1	73	1	3	1	6	7	1	2	15	15	n/a	38427.35891	n/a
38438.60259	14.36751247	1	74	1	3	1	6	8	2	1	15	15	n/a	38442.05234	n/a
38453.17046	14.39792436	1	75	1	3	1	6	9	1	2	15	15	n/a	38456.60354	n/a
38467.77083	14.3399951	1	76	1	3	1	6	10	2	1	15	15	n/a	38471.17015	n/a
38482.3035	14.47003222	1	77	1	3	1	6	11	1	2	15	15	n/a	38485.81876	n/a
38496.97228	14.24946693	1	78	1	3	1	6	12	2	1	15	15	n/a	38500.3896	n/a
38511.42284	14.36915642	1	79	1	3	1	6	13	2	1	15	15	n/a	38514.83933	n/a
38525.99098	14.25156937	1	80	1	3	1	6	14	1	1	15	15	n/a	38529.40694	n/a
38540.43831	14.85211167	1	81	1	3	1	6	15	2	2	15	15	n/a	38543.87332	n/a
38555.49137	13.98287605	1	82	1	3	1	6	16	2	2	15	15	n/a	38558.95379	n/a
38569.6712	13.49497152	1	83	1	3	1	6	17	2	2	15	15	n/a	38572.89568	n/a
38583.34928	13.13687973	1	84	1	3	1	6	18	1	1	15	15	n/a	38586.50878	n/a
38596.67412	13.03638909	1	85	1	3	9	7	1	3	3	15	15	n/a	n/a	n/a
38609.89055	13.03910989	1	86	1	3	9	7	2	3	3	15	15	n/a	n/a	n/a
38623.11177	13.02998267	1	87	1	3	9	7	3	3	3	15	15	n/a	n/a	n/a
38636.33051	13.01135828	1	88	1	3	9	7	4	3	3	15	15	n/a	n/a	n/a
38649.5297	13.01483828	1	89	1	3	9	7	5	3	3	15	15	n/a	n/a	n/a
38662.73232	13.05540539	1	90	1	3	9	7	6	3	3	15	15	n/a	n/a	n/a
38675.96762	13.01514986	1	91	1	3	9	7	7	3	3	15	15	n/a	n/a	n/a
38689.16621	13.05212551	1	92	1	3	9	7	8	3	3	15	15	n/a	n/a	n/a
38702.40062	13.01750422	1	93	1	3	9	7	9	3	3	15	15	n/a	n/a	n/a
38715.59993	13.0170613	1	94	1	3	9	7	10	3	3	15	15	n/a	n/a	n/a
38728.8233	13.16870503	1	95	1	3	5	8	1	2	2	15	15	n/a	38732.00832	n/a
38742.17464	13.33541851	1	96	1	3	5	8	2	2	1	15	15	n/a	38745.35989	n/a
38755.69367	13.89159931	1	97	1	3	5	8	3	2	2	15	15	n/a	38759.01763	n/a
38769.78356	14.15635982	1	98	1	3	5	8	4	2	2	15	15	n/a	38773.19125	n/a
38784.13882	14.30005015	1	99	1	3	5	8	5	2	2	15	15	n/a	38787.54453	n/a
38798.64271	14.30289974	1	100	1	3	5	8	6	1	2	15	15	n/a	38802.04291	n/a
38813.14508	14.39893942	1	101	1	3	5	8	7	2	2	15	15	n/a	38816.56114	n/a
38827.74114	14.26737903	1	102	1	3	5	8	8	1	2	15	15	n/a	38831.16308	n/a
38842.21555	14.28024254	1	103	1	3	5	8	9	2	1	15	15	n/a	38845.62714	n/a
38856.69788	14.19841232	1	104	1	3	5	8	10	1	1	15	15	n/a	38860.11341	n/a
38871.09472	14.25626041	1	105	1	3	5	8	11	2	1	15	15	n/a	38874.51137	n/a
38885.55035	14.33212183	1	106	1	3	5	8	12	1	1	15	15	n/a	38888.97992	n/a
38900.08984	14.32521638	1	107	1	3	5	8	13	1	1	15	15	n/a	38903.5477	n/a
38914.61416	14.21900365	1	108	1	3	5	8	14	2	1	15	15	n/a	38918.02949	n/a
38929.03565	14.32897284	1	109	1	3	5	8	15	2	2	15	15	n/a	38932.43757	n/a
38943.56578	14.2669009	1	110	1	3	5	8	16	1	1	15	15	n/a	38946.9691	n/a
38958.03559	13.53551289	1	111	1	3	5	8	17	1	1	15	15	n/a	38961.35608	n/a
38971.80675	13.23501106	1	112	1	3	5	8	18	1	1	15	15	n/a	38975.02586	n/a
38985.23672	13.03010177	1	113	1	3	9	9	1	3	3	15	15	n/a	n/a	n/a
38998.45648	13.02986601	1	114	1	3	9	9	2	3	3	15	15	n/a	n/a	n/a
39011.67658	13.01356712	1	115	1	3	9	9	3	3	3	15	15	n/a	n/a	n/a
39024.87426	13.07758507	1	116	1	3	9	9	4	3	3	15	15	n/a	n/a	n/a
39038.13979	13.08623512	1	117	1	3	9	9	5	3	3	15	15	n/a	n/a	n/a
39051.40897	13.21802584	1	118	1	3	9	9	6	3	3	15	15	n/a	n/a	n/a
39064.80842	13.44094082	1	119	1	3	9	9	7	3	3	15	15	n/a	n/a	n/a
39078.43553	13.58470419	1	120	1	3	9	9	8	3	3	15	15	n/a	n/a	n/a
39092.21888	13.36819506	1	121	1	3	9	9	9	3	3	15	15	n/a	n/a	n/a
39105.77073	13.7744547	1	122	1	3	9	9	10	3	3	15	15	n/a	n/a	n/a
