onset	duration	run_number	trial_number	att_task	fix_direction	bar_direction	bar_period	bar_step	fix_noise_ori	stim_noise_ori	fix_stair_val	stim_stair_val	response_val	probe_time	reaction_time
183158.5423	1.285649832	5	1	1	1	9	1	1	3	3	7	6	n/a	n/a	n/a
183159.8447	1.281289811	5	2	1	1	9	1	2	3	3	7	6	n/a	n/a	n/a
183161.1429	1.434492837	5	3	1	1	9	1	3	3	3	7	6	n/a	n/a	n/a
183162.5927	1.30206091	5	4	1	1	9	1	4	3	3	7	6	n/a	n/a	n/a
183163.9092	1.283629862	5	5	1	1	9	1	5	3	3	7	6	n/a	n/a	n/a
183165.2092	1.282746383	5	6	1	1	9	1	6	3	3	7	6	n/a	n/a	n/a
183166.5091	1.283403083	5	7	1	1	9	1	7	3	3	7	6	n/a	n/a	n/a
183167.8089	1.283453203	5	8	1	1	9	1	8	3	3	7	6	n/a	n/a	n/a
183169.1085	1.284022679	5	9	1	1	9	1	9	3	3	7	6	n/a	n/a	n/a
183170.4092	1.282927123	5	10	1	1	9	1	10	3	3	7	6	n/a	n/a	n/a
183171.7441	1.281705246	5	11	1	1	1	2	1	2	1	7	6	n/a	183172.0792	n/a
183173.0441	1.282093093	5	12	1	1	1	2	2	1	2	8	6	0	183173.3754	0.451799482
183174.3421	1.283467516	5	13	1	1	1	2	3	2	1	8	6	1	183174.6759	0.199662443
183175.6464	1.280172058	5	14	1	1	1	2	4	2	2	8	6	n/a	183175.9753	n/a
183176.9427	1.282771727	5	15	1	1	1	2	5	1	1	8	6	n/a	183177.276	n/a
183178.2424	1.283339568	5	16	1	1	1	2	6	1	2	8	6	n/a	183178.5798	n/a
183179.5419	1.46712876	5	17	1	1	1	2	7	1	2	8	6	n/a	183179.8915	n/a
183181.0255	1.283287429	5	18	1	1	1	2	8	1	2	8	6	n/a	183181.3638	n/a
183182.3254	1.283751249	5	19	1	1	1	2	9	2	2	8	6	n/a	183182.6591	n/a
183183.6274	1.281184855	5	20	1	1	1	2	10	1	2	8	6	n/a	183183.9625	n/a
183184.9249	1.283860537	5	21	1	1	1	2	11	2	2	8	6	n/a	183185.259	n/a
183186.2299	1.278968539	5	22	1	1	1	2	12	2	2	8	6	n/a	183186.5612	n/a
183187.5252	1.283338479	5	23	1	1	1	2	13	1	2	8	6	n/a	183187.8587	n/a
183188.8252	1.285571473	5	24	1	1	1	2	14	2	1	8	6	n/a	183189.1585	n/a
183190.1247	1.283756521	5	25	1	1	1	2	15	2	2	8	6	n/a	183190.4587	n/a
183191.4251	1.28340569	5	26	1	1	1	2	16	1	2	8	6	n/a	183191.7587	n/a
183192.7252	1.283436831	5	27	1	1	1	2	17	1	1	8	6	n/a	183193.0585	n/a
183194.0253	1.282657926	5	28	1	1	1	2	18	1	2	8	6	n/a	183194.3585	n/a
183195.3264	1.282568621	5	29	1	1	9	3	1	3	3	8	6	n/a	n/a	n/a
183196.6254	1.283097241	5	30	1	1	9	3	2	3	3	8	6	n/a	n/a	n/a
183197.9248	1.283790757	5	31	1	1	9	3	3	3	3	8	6	n/a	n/a	n/a
183199.2252	1.283533994	5	32	1	1	9	3	4	3	3	8	6	n/a	n/a	n/a
183200.5253	1.283206216	5	33	1	1	9	3	5	3	3	8	6	n/a	n/a	n/a
183201.8254	1.283417103	5	34	1	1	9	3	6	3	3	8	6	n/a	n/a	n/a
183203.1252	1.284014134	5	35	1	1	9	3	7	3	3	8	6	n/a	n/a	n/a
183204.425	1.284017361	5	36	1	1	9	3	8	3	3	8	6	n/a	n/a	n/a
183205.7255	1.283107482	5	37	1	1	9	3	9	3	3	8	6	n/a	n/a	n/a
183207.0254	1.285737034	5	38	1	1	9	3	10	3	3	8	6	n/a	n/a	n/a
183208.33	1.278862065	5	39	1	1	5	4	1	1	1	8	6	n/a	183208.6586	n/a
183209.6253	1.283215276	5	40	1	1	5	4	2	1	2	8	6	0	183209.9585	0.91698671
183210.9251	1.290666686	5	41	1	1	5	4	3	2	1	9	6	n/a	183211.2633	n/a
183212.2255	1.288111488	5	42	1	1	5	4	4	1	1	10	6	0	183212.5585	0.317428087
183213.5269	1.281625627	5	43	1	1	5	4	5	1	2	11	6	0	183213.8587	0.383132646
183214.8252	1.283566557	5	44	1	1	5	4	6	1	2	11	6	n/a	183215.1588	n/a
183216.1251	1.283387832	5	45	1	1	5	4	7	2	1	11	6	1	183216.4586	0.283555544
183217.4252	1.283218122	5	46	1	1	5	4	8	1	2	11	6	n/a	183217.7586	n/a
183218.7251	1.283615243	5	47	1	1	5	4	9	2	1	11	6	n/a	183219.0587	n/a
183220.0253	1.284922743	5	48	1	1	5	4	10	2	1	11	6	n/a	183220.3582	n/a
183221.3246	1.283600385	5	49	1	1	5	4	11	2	1	11	6	n/a	183221.6586	n/a
183222.6253	1.286649037	5	50	1	1	5	4	12	2	2	11	6	n/a	183222.9606	n/a
183223.9256	1.283173494	5	51	1	1	5	4	13	1	2	11	6	n/a	183224.2588	n/a
183225.2251	1.284050495	5	52	1	1	5	4	14	2	2	11	6	1	183225.5587	0.900160066
183226.5253	1.283700741	5	53	1	1	5	4	15	1	2	11	6	n/a	183226.8587	n/a
183227.8252	1.283287283	5	54	1	1	5	4	16	2	1	11	6	n/a	183228.1601	n/a
183229.1252	1.283316401	5	55	1	1	5	4	17	1	1	11	6	n/a	183229.4585	n/a
183230.426	1.282527461	5	56	1	1	5	4	18	1	2	11	6	n/a	183230.7588	n/a
183231.7325	1.276103181	5	57	1	1	9	5	1	3	3	11	6	n/a	n/a	n/a
183233.0252	1.283331517	5	58	1	1	9	5	2	3	3	11	6	n/a	n/a	n/a
183234.3252	1.283764676	5	59	1	1	9	5	3	3	3	11	6	n/a	n/a	n/a
183235.6251	1.283330599	5	60	1	1	9	5	4	3	3	11	6	n/a	n/a	n/a
183236.9255	1.282715861	5	61	1	1	9	5	5	3	3	11	6	n/a	n/a	n/a
183238.2252	1.283493531	5	62	1	1	9	5	6	3	3	11	6	n/a	n/a	n/a
183239.5253	1.283259284	5	63	1	1	9	5	7	3	3	11	6	n/a	n/a	n/a
183240.8252	1.300342514	5	64	1	1	9	5	8	3	3	11	6	n/a	n/a	n/a
183242.1419	1.283381631	5	65	1	1	9	5	9	3	3	11	6	n/a	n/a	n/a
183243.442	1.287738983	5	66	1	1	9	5	10	3	3	11	6	n/a	n/a	n/a
183244.7494	1.275850426	5	67	1	1	1	6	1	2	2	11	6	n/a	183245.0754	n/a
183246.0418	1.284063179	5	68	1	1	1	6	2	2	2	10	6	1	183246.3752	0.03419984001
183247.3467	1.278534283	5	69	1	1	1	6	3	1	1	11	6	0	183247.6754	0.532940099
183248.6457	1.279499162	5	70	1	1	1	6	4	1	1	12	6	0	183248.9754	0.650280282
183249.9414	1.283797045	5	71	1	1	1	6	5	1	1	13	6	0	183250.2749	0.267405249
183251.242	1.28347391	5	72	1	1	1	6	6	1	2	14	6	0	183251.5753	0.199617995
183252.5419	1.283160572	5	73	1	1	1	6	7	1	1	15	6	0	183252.8755	0.0002153089736
183253.842	1.283138669	5	74	1	1	1	6	8	2	2	15	6	1	183254.1752	0.100138043
183255.1421	1.28479731	5	75	1	1	1	6	9	2	2	15	6	n/a	183255.4752	n/a
183256.4424	1.284441433	5	76	1	1	1	6	10	1	1	15	6	n/a	183256.7747	n/a
183257.7415	1.283314057	5	77	1	1	1	6	11	2	2	15	6	n/a	183258.0755	n/a
183259.0422	1.283192191	5	78	1	1	1	6	12	2	1	15	6	n/a	183259.3752	n/a
183260.342	1.283069752	5	79	1	1	1	6	13	1	2	15	6	n/a	183260.6754	n/a
183261.6419	1.283134436	5	80	1	1	1	6	14	1	1	15	6	n/a	183261.9752	n/a
183262.9419	1.28318122	5	81	1	1	1	6	15	2	2	15	6	n/a	183263.2755	n/a
183264.2411	1.284032842	5	82	1	1	1	6	16	1	1	15	6	n/a	183264.5752	n/a
183265.542	1.283085492	5	83	1	1	1	6	17	1	2	15	6	n/a	183265.8752	n/a
183266.8419	1.285222714	5	84	1	1	1	6	18	2	2	15	6	n/a	183267.1754	n/a
183268.151	1.274325861	5	85	1	1	9	7	1	3	3	15	6	n/a	n/a	n/a
183269.4419	1.283309172	5	86	1	1	9	7	2	3	3	15	6	n/a	n/a	n/a
183270.7416	1.303306775	5	87	1	1	9	7	3	3	3	15	6	n/a	n/a	n/a
183272.0585	1.283692863	5	88	1	1	9	7	4	3	3	15	6	n/a	n/a	n/a
183273.3583	1.30006321	5	89	1	1	9	7	5	3	3	15	6	n/a	n/a	n/a
183274.6757	1.282576437	5	90	1	1	9	7	6	3	3	15	6	n/a	n/a	n/a
183275.9753	1.283240877	5	91	1	1	9	7	7	3	3	15	6	n/a	n/a	n/a
183277.2748	1.283810998	5	92	1	1	9	7	8	3	3	15	6	n/a	n/a	n/a
183278.5775	1.283130877	5	93	1	1	9	7	9	3	3	15	6	n/a	n/a	n/a
183279.8851	1.273202248	5	94	1	1	9	7	10	3	3	15	6	n/a	n/a	n/a
183281.1753	1.282774179	5	95	1	1	5	8	1	2	2	15	6	n/a	183281.5084	n/a
183282.4754	1.283373794	5	96	1	1	5	8	2	2	2	15	6	n/a	183282.8103	n/a
183283.7749	1.283620972	5	97	1	1	5	8	3	2	2	15	6	n/a	183284.1106	n/a
183285.0753	1.283318834	5	98	1	1	5	8	4	2	2	15	6	n/a	183285.4188	n/a
183286.3753	1.283429432	5	99	1	1	5	8	5	2	2	15	6	n/a	183286.7086	n/a
183287.6748	1.283742628	5	100	1	1	5	8	6	2	2	15	6	n/a	183288.0084	n/a
183288.9752	1.283418402	5	101	1	1	5	8	7	1	1	15	6	n/a	183289.3082	n/a
183290.2753	1.282975828	5	102	1	1	5	8	8	2	1	15	6	n/a	183290.6194	n/a
183291.5752	1.283097341	5	103	1	1	5	8	9	1	2	15	6	n/a	183291.9086	n/a
183292.8752	1.350093041	5	104	1	1	5	8	10	2	2	15	6	n/a	183293.2434	n/a
183294.2416	1.334776252	5	105	1	1	5	8	11	1	2	15	6	n/a	183294.5747	n/a
183295.5934	1.299283734	5	106	1	1	5	8	12	2	2	15	6	n/a	183295.9423	n/a
183296.9085	1.283874598	5	107	1	1	5	8	13	1	2	15	6	n/a	183297.2415	n/a
183298.208	1.283812952	5	108	1	1	5	8	14	1	1	15	6	n/a	183298.5415	n/a
183299.5087	1.282659636	5	109	1	1	5	8	15	1	1	15	6	n/a	183299.8528	n/a
183300.8084	1.283434813	5	110	1	1	5	8	16	2	1	15	6	n/a	183301.1417	n/a
183302.1078	1.284887874	5	111	1	1	5	8	17	2	2	15	6	n/a	183302.4532	n/a
183303.4101	1.281893975	5	112	1	1	5	8	18	2	2	15	6	n/a	183303.7422	n/a
183304.7087	1.283184811	5	113	1	1	9	9	1	3	3	15	6	n/a	n/a	n/a
183306.0085	1.283405038	5	114	1	1	9	9	2	3	3	15	6	n/a	n/a	n/a
183307.3087	1.282686592	5	115	1	1	9	9	3	3	3	15	6	n/a	n/a	n/a
183308.609	1.282647567	5	116	1	1	9	9	4	3	3	15	6	n/a	n/a	n/a
183309.909	1.282880032	5	117	1	1	9	9	5	3	3	15	6	n/a	n/a	n/a
183311.2086	1.28300205	5	118	1	1	9	9	6	3	3	15	6	n/a	n/a	n/a
183312.5085	1.283355933	5	119	1	1	9	9	7	3	3	15	6	n/a	n/a	n/a
183313.8085	1.29575441	5	120	1	1	9	9	8	3	3	15	6	n/a	n/a	n/a
183315.1208	1.283183688	5	121	1	1	9	9	9	3	3	15	6	n/a	n/a	n/a
183316.4205	1.283485821	5	122	1	1	9	9	10	3	3	15	6	n/a	n/a	n/a
