onset	duration	run_number	trial_number	att_task	fix_direction	bar_period	bar_direction	bar_step	fix_noise_ori	stim_noise_ori	fix_stair_val	stim_stair_val	response_val	probe_time	reaction_time	reaction_time
1544726553	1.191426992	8	1	2	3	9	1	1	3	3	7	5	NaN	NaN	NaN	NaN
1544726554	1.191666842	8	2	2	3	9	1	2	3	3	7	5	NaN	NaN	NaN	NaN
1544726556	1.19166708	8	3	2	3	9	1	3	3	3	7	5	NaN	NaN	NaN	NaN
1544726557	1.191604853	8	4	2	3	9	1	4	3	3	7	5	NaN	NaN	NaN	NaN
1544726558	1.191817999	8	5	2	3	9	1	5	3	3	7	5	NaN	NaN	NaN	NaN
1544726559	1.191688061	8	6	2	3	9	1	6	3	3	7	5	NaN	NaN	NaN	NaN
1544726560	1.191797972	8	7	2	3	9	1	7	3	3	7	5	NaN	NaN	NaN	NaN
1544726562	1.191643	8	8	2	3	9	1	8	3	3	7	5	NaN	NaN	NaN	NaN
1544726563	1.191704035	8	9	2	3	9	1	9	3	3	7	5	NaN	NaN	NaN	NaN
NaN	NaN	8	10	2	3	9	1	10	3	3	NaN	NaN	NaN	NaN	NaN	NaN
1544726564	1.199207067	8	11	2	3	1	2	1	2	1	7	5	NaN	1544726565	NaN	NaN
1544726565	1.191704988	8	12	2	3	1	2	2	2	2	7	5	1	1544726566	0.8670349121	0.8670349121
1544726567	1.191815138	8	13	2	3	1	2	3	1	1	7	5	1	1544726567	0.7585000992	0.7585000992
1544726568	1.191755056	8	14	2	3	1	2	4	2	1	7	5	NaN	1544726568	NaN	NaN
1544726569	1.191723824	8	15	2	3	1	2	5	2	2	7	5	1	1544726569	0.88280797	0.88280797
1544726570	1.191728115	8	16	2	3	1	2	6	1	2	7	4	NaN	1544726571	NaN	NaN
1544726571	1.191716909	8	17	2	3	1	2	7	2	2	7	4	1	1544726572	0.7253329754	0.7253329754
1544726573	1.191711903	8	18	2	3	1	2	8	2	2	7	4	1	1544726573	0.7002060413	0.7002060413
1544726574	1.19176507	8	19	2	3	1	2	9	2	1	7	3	1	1544726574	0.5919480324	0.5919480324
1544726575	1.191719055	8	20	2	3	1	2	10	2	2	7	3	1	1544726575	0.6178929806	0.6178929806
1544726576	1.191735029	8	21	2	3	1	2	11	1	1	7	3	1	1544726577	0.6089229584	0.6089229584
1544726577	1.191687107	8	22	2	3	1	2	12	2	2	7	2	1	1544726578	0.6255619526	0.6255619526
1544726579	1.191668987	8	23	2	3	1	2	13	2	2	7	2	1	1544726579	0.6500880718	0.6500880718
1544726580	1.191728115	8	24	2	3	1	2	14	2	1	7	3	0	1544726580	0.5171339512	0.5171339512
1544726581	1.191762924	8	25	2	3	1	2	15	1	1	7	3	1	1544726581	0.7338080406	0.7338080406
1544726582	1.191653967	8	26	2	3	1	2	16	2	1	7	4	0	1544726583	0.641685009	0.641685009
1544726583	1.191723108	8	27	2	3	1	2	17	1	2	7	5	0	1544726584	0.6263840199	0.6263840199
1544726585	1.191677094	8	28	2	3	1	2	18	1	2	7	5	1	1544726585	0.3918209076	0.3918209076
NaN	NaN	8	29	2	3	9	2	19	3	3	NaN	NaN	NaN	NaN	NaN	NaN
1544726587	1.19141984	8	30	2	3	9	3	1	3	3	7	5	NaN	NaN	NaN	NaN
1544726588	1.191445112	8	31	2	3	9	3	2	3	3	7	5	NaN	NaN	NaN	NaN
1544726589	1.191755056	8	32	2	3	9	3	3	3	3	7	5	NaN	NaN	NaN	NaN
1544726590	1.191740036	8	33	2	3	9	3	4	3	3	7	5	NaN	NaN	NaN	NaN
1544726592	1.191701889	8	34	2	3	9	3	5	3	3	7	5	NaN	NaN	NaN	NaN
1544726593	1.19174099	8	35	2	3	9	3	6	3	3	7	5	NaN	NaN	NaN	NaN
1544726594	1.191784859	8	36	2	3	9	3	7	3	3	7	5	NaN	NaN	NaN	NaN
1544726595	1.191540003	8	37	2	3	9	3	8	3	3	7	5	NaN	NaN	NaN	NaN
1544726596	1.191617012	8	38	2	3	9	3	9	3	3	7	5	NaN	NaN	NaN	NaN
NaN	NaN	8	39	2	3	9	3	10	3	3	NaN	NaN	NaN	NaN	NaN	NaN
1544726598	1.199738979	8	40	2	3	5	4	1	1	2	7	6	0	1544726598	0.5418009758	0.5418009758
1544726599	1.200026989	8	41	2	3	5	4	2	2	2	7	6	1	1544726599	0.3918261528	0.3918261528
1544726600	1.191745996	8	42	2	3	5	4	3	2	2	7	6	1	1544726601	0.5001101494	0.5001101494
1544726601	1.191737175	8	43	2	3	5	4	4	2	2	7	7	0	1544726602	0.5168800354	0.5168800354
1544726603	1.191742182	8	44	2	3	5	4	5	1	1	7	7	1	1544726603	0.5670289993	0.5670289993
1544726604	1.19177103	8	45	2	3	5	4	6	2	1	7	8	0	1544726604	0.5917880535	0.5917880535
1544726605	1.200043917	8	46	2	3	5	4	7	1	1	7	8	1	1544726605	0.5584700108	0.5584700108
1544726606	1.191730976	8	47	2	3	5	4	8	1	1	7	8	1	1544726607	0.5917749405	0.5917749405
1544726607	1.191722155	8	48	2	3	5	4	9	1	2	7	7	1	1544726608	0.6917078495	0.6917078495
1544726609	1.200114965	8	49	2	3	5	4	10	1	1	7	7	1	1544726609	0.6499531269	0.6499531269
1544726610	1.200106859	8	50	2	3	5	4	11	2	2	7	7	1	1544726610	0.5083470345	0.5083470345
1544726611	1.191735029	8	51	2	3	5	4	12	1	1	7	6	1	1544726611	0.5251019001	0.5251019001
1544726612	1.191770077	8	52	2	3	5	4	13	1	2	7	6	1	1544726613	0.5501050949	0.5501050949
1544726613	1.191745043	8	53	2	3	5	4	14	2	2	7	6	1	1544726614	0.4917430878	0.4917430878
1544726615	1.191715002	8	54	2	3	5	4	15	1	2	7	5	1	1544726615	0.6500930786	0.6500930786
1544726616	1.19171977	8	55	2	3	5	4	16	2	2	7	5	1	1544726616	0.6500980854	0.6500980854
1544726617	1.191685915	8	56	2	3	5	4	17	1	1	7	5	1	1544726617	0.5168261528	0.5168261528
1544726618	1.191719055	8	57	2	3	5	4	18	1	1	7	4	1	1544726619	0.5000758171	0.5000758171
NaN	NaN	8	58	2	3	9	4	19	3	3	NaN	NaN	NaN	NaN	NaN	NaN
1544726620	1.191659927	8	59	2	3	9	5	1	3	3	7	4	NaN	NaN	NaN	NaN
1544726622	1.191756964	8	60	2	3	9	5	2	3	3	7	4	NaN	NaN	NaN	NaN
1544726623	1.191741943	8	61	2	3	9	5	3	3	3	7	4	NaN	NaN	NaN	NaN
1544726624	1.191724062	8	62	2	3	9	5	4	3	3	7	4	NaN	NaN	NaN	NaN
1544726625	1.191772938	8	63	2	3	9	5	5	3	3	7	4	NaN	NaN	NaN	NaN
1544726626	1.191720963	8	64	2	3	9	5	6	3	3	7	4	NaN	NaN	NaN	NaN
1544726628	1.191741943	8	65	2	3	9	5	7	3	3	7	4	NaN	NaN	NaN	NaN
1544726629	1.191749096	8	66	2	3	9	5	8	3	3	7	4	NaN	NaN	NaN	NaN
1544726630	1.191773891	8	67	2	3	9	5	9	3	3	7	4	NaN	NaN	NaN	NaN
NaN	NaN	8	68	2	3	9	5	10	3	3	NaN	NaN	NaN	NaN	NaN	NaN
1544726631	1.191737175	8	69	2	3	1	6	1	2	2	7	4	1	1544726632	0.5172848701	0.5172848701
1544726633	1.191706181	8	70	2	3	1	6	2	1	2	7	4	1	1544726633	0.5834498405	0.5834498405
1544726634	1.191648006	8	71	2	3	1	6	3	2	2	7	4	0	1544726634	0.8835091591	0.8835091591
1544726635	1.191715956	8	72	2	3	1	6	4	2	1	7	5	1	1544726635	0.7584788799	0.7584788799
1544726636	1.191701174	8	73	2	3	1	6	5	1	2	7	5	1	1544726637	0.75009799	0.75009799
1544726637	1.200062037	8	74	2	3	1	6	6	1	1	7	4	1	1544726638	0.7000877857	0.7000877857
1544726639	1.200078011	8	75	2	3	1	6	7	2	1	7	4	1	1544726639	0.7667629719	0.7667629719
1544726640	1.191730976	8	76	2	3	1	6	8	1	1	7	4	1	1544726640	0.7500920296	0.7500920296
1544726641	1.191698074	8	77	2	3	1	6	9	2	1	7	4	NaN	1544726641	NaN	NaN
1544726642	1.191715002	8	78	2	3	1	6	10	1	2	7	5	0	1544726643	0.7503812313	0.7503812313
1544726643	1.191729784	8	79	2	3	1	6	11	1	2	7	6	0	1544726644	0.7918379307	0.7918379307
1544726645	1.200064898	8	80	2	3	1	6	12	2	1	7	7	0	1544726645	0.7417759895	0.7417759895
1544726646	1.191727877	8	81	2	3	1	6	13	1	2	7	7	1	1544726646	0.8167181015	0.8167181015
1544726647	1.191669941	8	82	2	3	1	6	14	2	1	7	7	1	1544726647	0.7500638962	0.7500638962
1544726648	1.191606998	8	83	2	3	1	6	15	1	1	7	6	1	1544726649	0.7500910759	0.7500910759
1544726649	1.191737175	8	84	2	3	1	6	16	2	2	7	6	1	1544726650	0.7334051132	0.7334051132
1544726651	1.191725969	8	85	2	3	1	6	17	2	1	7	6	1	1544726651	0.700067997	0.700067997
1544726652	1.191733837	8	86	2	3	1	6	18	2	2	7	5	1	1544726652	0.7084951401	0.7084951401
NaN	NaN	8	87	2	3	9	6	19	3	3	NaN	NaN	NaN	NaN	NaN	NaN
1544726654	1.191772938	8	88	2	3	9	7	1	3	3	7	5	NaN	NaN	NaN	NaN
1544726655	1.191709995	8	89	2	3	9	7	2	3	3	7	5	NaN	NaN	NaN	NaN
1544726656	1.191737175	8	90	2	3	9	7	3	3	3	7	5	NaN	NaN	NaN	NaN
1544726658	1.191704035	8	91	2	3	9	7	4	3	3	7	5	NaN	NaN	NaN	NaN
1544726659	1.191691875	8	92	2	3	9	7	5	3	3	7	5	NaN	NaN	NaN	NaN
1544726660	1.191824198	8	93	2	3	9	7	6	3	3	7	5	NaN	NaN	NaN	NaN
1544726661	1.191754818	8	94	2	3	9	7	7	3	3	7	5	NaN	NaN	NaN	NaN
1544726662	1.191751003	8	95	2	3	9	7	8	3	3	7	5	NaN	NaN	NaN	NaN
1544726664	1.19178009	8	96	2	3	9	7	9	3	3	7	5	NaN	NaN	NaN	NaN
NaN	NaN	8	97	2	3	9	7	10	3	3	NaN	NaN	NaN	NaN	NaN	NaN
1544726665	1.191944122	8	98	2	3	5	8	1	1	2	7	5	NaN	1544726665	NaN	NaN
1544726666	1.191446066	8	99	2	3	5	8	2	2	1	7	5	NaN	1544726667	NaN	NaN
1544726667	1.191712856	8	100	2	3	5	8	3	1	2	7	5	1	1544726668	0.4418170452	0.4418170452
1544726669	1.191719055	8	101	2	3	5	8	4	2	1	7	6	0	1544726669	0.7752280235	0.7752280235
1544726670	1.191725969	8	102	2	3	5	8	5	1	2	7	6	NaN	1544726670	NaN	NaN
1544726671	1.191677094	8	103	2	3	5	8	6	2	1	7	6	NaN	1544726671	NaN	NaN
1544726672	1.191701889	8	104	2	3	5	8	7	2	1	7	6	NaN	1544726673	NaN	NaN
1544726673	1.191590071	8	105	2	3	5	8	8	1	1	7	6	1	1544726674	0.875223875	0.875223875
1544726675	1.191645861	8	106	2	3	5	8	9	2	2	7	6	1	1544726675	0.8835110664	0.8835110664
1544726676	1.200076818	8	107	2	3	5	8	10	2	1	7	5	1	1544726676	0.8001699448	0.8001699448
1544726677	1.19172287	8	108	2	3	5	8	11	1	2	7	5	NaN	1544726677	NaN	NaN
1544726678	1.191751957	8	109	2	3	5	8	12	1	2	7	5	NaN	1544726679	NaN	NaN
1544726679	1.191730022	8	110	2	3	5	8	13	1	2	7	5	NaN	1544726680	NaN	NaN
1544726681	1.191713095	8	111	2	3	5	8	14	1	1	7	5	NaN	1544726681	NaN	NaN
1544726682	1.200079918	8	112	2	3	5	8	15	1	1	7	5	NaN	1544726682	NaN	NaN
1544726683	1.191674948	8	113	2	3	5	8	16	1	2	7	5	1	1544726683	0.8583898544	0.8583898544
1544726684	1.191679001	8	114	2	3	5	8	17	1	2	7	5	NaN	1544726685	NaN	NaN
1544726685	1.191735029	8	115	2	3	5	8	18	1	2	7	6	0	1544726686	0.7834079266	0.7834079266
NaN	NaN	8	116	2	3	9	8	19	3	3	NaN	NaN	NaN	NaN	NaN	NaN
1544726688	1.191640854	8	117	2	3	9	9	1	3	3	7	6	NaN	NaN	NaN	NaN
1544726689	1.191701889	8	118	2	3	9	9	2	3	3	7	6	NaN	NaN	NaN	NaN
1544726690	1.191714048	8	119	2	3	9	9	3	3	3	7	6	NaN	NaN	NaN	NaN
1544726691	1.191742897	8	120	2	3	9	9	4	3	3	7	6	NaN	NaN	NaN	NaN
1544726692	1.191782951	8	121	2	3	9	9	5	3	3	7	6	NaN	NaN	NaN	NaN
1544726694	1.191753149	8	122	2	3	9	9	6	3	3	7	6	NaN	NaN	NaN	NaN
1544726695	1.191768885	8	123	2	3	9	9	7	3	3	7	6	NaN	NaN	NaN	NaN
1544726696	1.191719055	8	124	2	3	9	9	8	3	3	7	6	NaN	NaN	NaN	NaN
1544726697	1.191745043	8	125	2	3	9	9	9	3	3	7	6	NaN	NaN	NaN	NaN
NaN	NaN	8	126	2	3	9	9	10	3	3	NaN	NaN	NaN	NaN	NaN	NaN
