onset	duration	run_number	trial_number	att_task	fix_direction	bar_period	bar_direction	bar_step	fix_noise_ori	stim_noise_ori	fix_stair_val	stim_stair_val	response_val	probe_time	reaction_time	reaction_time
1544725100	1.191547871	3	1	1	4	9	1	1	3	3	4	7	NaN	NaN	NaN	NaN
1544725101	1.191594124	3	2	1	4	9	1	2	3	3	4	7	NaN	NaN	NaN	NaN
1544725103	1.191710949	3	3	1	4	9	1	3	3	3	4	7	NaN	NaN	NaN	NaN
1544725104	1.191806078	3	4	1	4	9	1	4	3	3	4	7	NaN	NaN	NaN	NaN
1544725105	1.191769838	3	5	1	4	9	1	5	3	3	4	7	NaN	NaN	NaN	NaN
1544725106	1.19173789	3	6	1	4	9	1	6	3	3	4	7	NaN	NaN	NaN	NaN
1544725107	1.191776991	3	7	1	4	9	1	7	3	3	4	7	NaN	NaN	NaN	NaN
1544725109	1.191591978	3	8	1	4	9	1	8	3	3	4	7	NaN	NaN	NaN	NaN
1544725110	1.191709995	3	9	1	4	9	1	9	3	3	4	7	NaN	NaN	NaN	NaN
NaN	NaN	3	10	1	4	9	1	10	3	3	NaN	NaN	NaN	NaN	NaN	NaN
1544725111	1.199213982	3	11	1	4	1	2	1	2	2	4	7	NaN	1544725112	NaN	NaN
1544725112	1.200046778	3	12	1	4	1	2	2	2	2	4	7	1	1544725113	0.5670361519	0.5670361519
1544725114	1.200001001	3	13	1	4	1	2	3	1	1	3	7	1	1544725114	0.6501522064	0.6501522064
1544725115	1.200021982	3	14	1	4	1	2	4	2	1	3	7	1	1544725115	0.7751948833	0.7751948833
1544725116	1.200108051	3	15	1	4	1	2	5	2	2	4	7	0	1544725116	0.6079819202	0.6079819202
1544725117	1.200073004	3	16	1	4	1	2	6	1	2	4	7	1	1544725118	0.5921149254	0.5921149254
1544725119	1.191734076	3	17	1	4	1	2	7	1	2	4	7	1	1544725119	0.6335709095	0.6335709095
1544725120	1.200096846	3	18	1	4	1	2	8	1	2	3	7	1	1544725120	0.8096318245	0.8096318245
1544725121	1.200016022	3	19	1	4	1	2	9	1	1	4	7	0	1544725121	0.6585018635	0.6585018635
1544725122	1.200098991	3	20	1	4	1	2	10	2	1	4	7	1	1544725122	0.7502839565	0.7502839565
1544725123	1.200070143	3	21	1	4	1	2	11	1	2	5	7	0	1544725124	0.6678929329	0.6678929329
1544725125	1.191730022	3	22	1	4	1	2	12	1	2	5	7	1	1544725125	0.6087129116	0.6087129116
1544725126	1.200068951	3	23	1	4	1	2	13	2	1	5	7	1	1544725126	0.6337559223	0.6337559223
1544725127	1.191757202	3	24	1	4	1	2	14	1	1	4	7	1	1544725127	0.6421470642	0.6421470642
1544725128	1.200019121	3	25	1	4	1	2	15	1	1	4	7	1	1544725128	0.7252430916	0.7252430916
1544725129	1.199893951	3	26	1	4	1	2	16	2	2	4	7	1	1544725130	0.7335889339	0.7335889339
1544725131	1.200139999	3	27	1	4	1	2	17	2	2	5	7	0	1544725131	0.7420158386	0.7420158386
1544725132	1.199992895	3	28	1	4	1	2	18	2	2	5	7	1	1544725132	0.7084200382	0.7084200382
1544725133	1.200042963	3	29	1	4	1	2	19	1	2	5	7	NaN	1544725133	NaN	NaN
1544725134	1.200031042	3	30	1	4	1	2	20	1	2	5	7	1	1544725134	0.6416990757	0.6416990757
1544725135	1.200048923	3	31	1	4	1	2	21	2	2	4	7	1	1544725136	0.7918241024	0.7918241024
1544725137	1.200043201	3	32	1	4	1	2	22	1	1	4	7	NaN	1544725137	NaN	NaN
1544725138	1.20003891	3	33	1	4	1	2	23	1	2	4	7	1	1544725138	0.7417490482	0.7417490482
1544725139	1.200064898	3	34	1	4	1	2	24	1	1	4	7	1	1544725139	0.7167758942	0.7167758942
1544725140	1.200063944	3	35	1	4	1	2	25	1	1	3	7	1	1544725141	0.8418159485	0.8418159485
1544725141	1.200026035	3	36	1	4	1	2	26	1	1	3	7	NaN	1544725142	NaN	NaN
1544725143	1.191545963	3	37	1	4	1	2	27	1	2	3	7	1	1544725143	0.5917801857	0.5917801857
1544725144	1.20005393	3	38	1	4	1	2	28	2	1	4	7	0	1544725144	0.6752560139	0.6752560139
1544725145	1.200063944	3	39	1	4	1	2	29	1	2	4	7	1	1544725145	0.6500971317	0.6500971317
1544725146	1.191701889	3	40	1	4	1	2	30	1	1	4	7	NaN	1544725147	NaN	NaN
1544725147	1.200001001	3	41	1	4	1	2	31	1	1	4	7	NaN	1544725148	NaN	NaN
1544725149	1.200020075	3	42	1	4	1	2	32	2	1	4	7	1	1544725149	0.8834180832	0.8834180832
NaN	NaN	3	43	1	4	9	2	33	3	3	NaN	NaN	NaN	NaN	NaN	NaN
1544725151	1.191599846	3	44	1	4	9	3	1	3	3	4	7	NaN	NaN	NaN	NaN
1544725152	1.191550016	3	45	1	4	9	3	2	3	3	4	7	NaN	NaN	NaN	NaN
1544725153	1.191807985	3	46	1	4	9	3	3	3	3	4	7	NaN	NaN	NaN	NaN
1544725154	1.191838026	3	47	1	4	9	3	4	3	3	4	7	NaN	NaN	NaN	NaN
1544725155	1.191755056	3	48	1	4	9	3	5	3	3	4	7	NaN	NaN	NaN	NaN
1544725157	1.191697121	3	49	1	4	9	3	6	3	3	4	7	NaN	NaN	NaN	NaN
1544725158	1.191807985	3	50	1	4	9	3	7	3	3	4	7	NaN	NaN	NaN	NaN
1544725159	1.191670895	3	51	1	4	9	3	8	3	3	4	7	NaN	NaN	NaN	NaN
1544725160	1.191778183	3	52	1	4	9	3	9	3	3	4	7	NaN	NaN	NaN	NaN
NaN	NaN	3	53	1	4	9	3	10	3	3	NaN	NaN	NaN	NaN	NaN	NaN
1544725163	1.199902058	3	54	1	4	3	4	1	2	2	3	7	1	1544725163	0.7504220009	0.7504220009
1544725164	1.199948788	3	55	1	4	3	4	2	2	2	3	7	1	1544725164	0.8501448631	0.8501448631
1544725165	1.19998908	3	56	1	4	3	4	3	2	2	4	7	0	1544725165	0.5584990978	0.5584990978
1544725166	1.200074911	3	57	1	4	3	4	4	2	2	4	7	1	1544725167	0.6001811028	0.6001811028
1544725168	1.200035095	3	58	1	4	3	4	5	2	2	4	7	1	1544725168	0.733440876	0.733440876
1544725169	1.200056076	3	59	1	4	3	4	6	2	2	3	7	1	1544725169	0.5750989914	0.5750989914
1544725170	1.216778994	3	60	1	4	3	4	7	1	2	3	7	1	1544725170	0.675093174	0.675093174
1544725171	1.200073004	3	61	1	4	3	4	8	1	2	3	7	1	1544725171	0.6917700768	0.6917700768
1544725172	1.200057983	3	62	1	4	3	4	9	1	1	4	7	0	1544725173	0.6251790524	0.6251790524
1544725174	1.200073957	3	63	1	4	3	4	10	1	1	4	7	1	1544725174	0.6751389503	0.6751389503
1544725175	1.200068951	3	64	1	4	3	4	11	1	2	5	7	0	1544725175	0.6001498699	0.6001498699
1544725176	1.200098991	3	65	1	4	3	4	12	2	1	5	7	1	1544725176	0.6501090527	0.6501090527
1544725177	1.200054884	3	66	1	4	3	4	13	2	2	5	7	1	1544725178	0.6917359829	0.6917359829
1544725178	1.200030088	3	67	1	4	3	4	14	2	1	4	7	1	1544725179	0.7917759418	0.7917759418
1544725180	1.20005393	3	68	1	4	3	4	15	2	1	4	7	NaN	1544725180	NaN	NaN
1544725181	1.19167304	3	69	1	4	3	4	16	2	1	4	7	1	1544725181	0.8334088326	0.8334088326
1544725182	1.200089931	3	70	1	4	3	4	17	1	1	4	7	1	1544725182	0.8168001175	0.8168001175
1544725183	1.200054884	3	71	1	4	3	4	18	2	2	3	7	1	1544725184	0.7834329605	0.7834329605
NaN	NaN	3	72	1	4	9	4	19	3	3	NaN	NaN	NaN	NaN	NaN	NaN
1544725185	1.191787004	3	73	1	4	9	5	1	3	3	3	7	NaN	NaN	NaN	NaN
1544725187	1.191751957	3	74	1	4	9	5	2	3	3	3	7	NaN	NaN	NaN	NaN
1544725188	1.191763878	3	75	1	4	9	5	3	3	3	3	7	NaN	NaN	NaN	NaN
1544725189	1.19175005	3	76	1	4	9	5	4	3	3	3	7	NaN	NaN	NaN	NaN
1544725190	1.19178319	3	77	1	4	9	5	5	3	3	3	7	NaN	NaN	NaN	NaN
1544725191	1.191739082	3	78	1	4	9	5	6	3	3	3	7	NaN	NaN	NaN	NaN
1544725193	1.191694975	3	79	1	4	9	5	7	3	3	3	7	NaN	NaN	NaN	NaN
1544725194	1.191715002	3	80	1	4	9	5	8	3	3	3	7	NaN	NaN	NaN	NaN
1544725195	1.191719055	3	81	1	4	9	5	9	3	3	3	7	NaN	NaN	NaN	NaN
NaN	NaN	3	82	1	4	9	5	10	3	3	NaN	NaN	NaN	NaN	NaN	NaN
1544725197	1.200042009	3	83	1	4	5	6	1	2	1	4	7	0	1544725198	0.6505889893	0.6505889893
1544725199	1.199991941	3	84	1	4	5	6	2	1	2	4	7	1	1544725199	0.6084299088	0.6084299088
1544725200	1.200020075	3	85	1	4	5	6	3	2	2	5	7	0	1544725200	0.5503180027	0.5503180027
1544725201	1.200021029	3	86	1	4	5	6	4	1	1	5	7	1	1544725201	0.6417551041	0.6417551041
1544725202	1.191686869	3	87	1	4	5	6	5	1	2	5	7	1	1544725203	0.8000950813	0.8000950813
1544725204	1.200022936	3	88	1	4	5	6	6	1	1	5	7	NaN	1544725204	NaN	NaN
1544725205	1.200011015	3	89	1	4	5	6	7	2	2	5	7	NaN	1544725205	NaN	NaN
1544725206	1.20007205	3	90	1	4	5	6	8	1	1	5	7	NaN	1544725206	NaN	NaN
1544725207	1.200109959	3	91	1	4	5	6	9	1	1	5	7	NaN	1544725207	NaN	NaN
1544725208	1.200092077	3	92	1	4	5	6	10	2	2	4	7	1	1544725209	0.8500568867	0.8500568867
1544725210	1.191733122	3	93	1	4	5	6	11	1	1	4	7	1	1544725210	0.858494997	0.858494997
1544725211	1.20005703	3	94	1	4	5	6	12	2	2	4	7	1	1544725211	0.716782093	0.716782093
1544725212	1.200093985	3	95	1	4	5	6	13	2	2	5	7	0	1544725212	0.6918301582	0.6918301582
1544725213	1.200068951	3	96	1	4	5	6	14	1	2	5	7	1	1544725213	0.7418859005	0.7418859005
1544725214	1.191681147	3	97	1	4	5	6	15	2	2	5	7	1	1544725215	0.8501679897	0.8501679897
1544725216	1.200083017	3	98	1	4	5	6	16	1	2	4	7	1	1544725216	0.7834658623	0.7834658623
1544725217	1.191763163	3	99	1	4	5	6	17	1	1	5	7	0	1544725217	0.7921419144	0.7921419144
1544725218	1.19993782	3	100	1	4	5	6	18	1	1	5	7	1	1544725218	0.7751269341	0.7751269341
1544725219	1.191725016	3	101	1	4	5	6	19	1	2	5	7	1	1544725220	0.6500320435	0.6500320435
1544725220	1.200043917	3	102	1	4	5	6	20	1	2	4	7	1	1544725221	0.80843997	0.80843997
1544725222	1.200050116	3	103	1	4	5	6	21	2	2	4	7	NaN	1544725222	NaN	NaN
1544725223	1.191716909	3	104	1	4	5	6	22	1	2	4	7	1	1544725223	0.6917779446	0.6917779446
1544725224	1.200068951	3	105	1	4	5	6	23	1	2	4	7	NaN	1544725224	NaN	NaN
1544725225	1.200094938	3	106	1	4	5	6	24	1	2	4	7	1	1544725226	0.73341012	0.73341012
1544725226	1.20007515	3	107	1	4	5	6	25	2	1	4	7	NaN	1544725227	NaN	NaN
1544725228	1.200052023	3	108	1	4	5	6	26	2	1	4	7	NaN	1544725228	NaN	NaN
1544725229	1.191714048	3	109	1	4	5	6	27	2	2	3	7	1	1544725229	0.8085541725	0.8085541725
1544725230	1.191688061	3	110	1	4	5	6	28	1	2	3	7	NaN	1544725230	NaN	NaN
1544725231	1.200113058	3	111	1	4	5	6	29	2	2	3	7	NaN	1544725232	NaN	NaN
1544725232	1.20005393	3	112	1	4	5	6	30	1	1	3	7	NaN	1544725233	NaN	NaN
1544725234	1.200060844	3	113	1	4	5	6	31	1	2	3	7	NaN	1544725234	NaN	NaN
1544725235	1.200082779	3	114	1	4	5	6	32	2	2	4	7	0	1544725235	0.7917468548	0.7917468548
NaN	NaN	3	115	1	4	9	6	33	3	3	NaN	NaN	NaN	NaN	NaN	NaN
1544725237	1.191774845	3	116	1	4	9	7	1	3	3	4	7	NaN	NaN	NaN	NaN
1544725238	1.191781998	3	117	1	4	9	7	2	3	3	4	7	NaN	NaN	NaN	NaN
1544725239	1.191702127	3	118	1	4	9	7	3	3	3	4	7	NaN	NaN	NaN	NaN
1544725241	1.191718102	3	119	1	4	9	7	4	3	3	4	7	NaN	NaN	NaN	NaN
1544725242	1.191776991	3	120	1	4	9	7	5	3	3	4	7	NaN	NaN	NaN	NaN
1544725243	1.191792011	3	121	1	4	9	7	6	3	3	4	7	NaN	NaN	NaN	NaN
1544725244	1.191772938	3	122	1	4	9	7	7	3	3	4	7	NaN	NaN	NaN	NaN
1544725245	1.191687822	3	123	1	4	9	7	8	3	3	4	7	NaN	NaN	NaN	NaN
1544725247	1.191710949	3	124	1	4	9	7	9	3	3	4	7	NaN	NaN	NaN	NaN
NaN	NaN	3	125	1	4	9	7	10	3	3	NaN	NaN	NaN	NaN	NaN	NaN
1544725249	1.1916852	3	126	1	4	7	8	1	1	2	4	7	NaN	1544725249	NaN	NaN
1544725250	1.207997084	3	127	1	4	7	8	2	2	2	4	7	1	1544725251	0.1417400837	0.1417400837
1544725252	1.191599846	3	128	1	4	7	8	3	2	1	4	7	0	1544725252	0.8667891026	0.8667891026
1544725253	1.208318949	3	129	1	4	7	8	4	2	2	5	7	1	1544725253	0.6667840481	0.6667840481
1544725254	1.200024128	3	130	1	4	7	8	5	2	2	6	7	0	1544725254	0.6668291092	0.6668291092
1544725255	1.208407879	3	131	1	4	7	8	6	1	2	6	7	1	1544725255	0.6917788982	0.6917788982
1544725256	1.200045109	3	132	1	4	7	8	7	2	1	6	7	1	1544725257	0.708507061	0.708507061
1544725258	1.200021982	3	133	1	4	7	8	8	1	1	5	7	1	1544725258	0.6416809559	0.6416809559
1544725259	1.208292007	3	134	1	4	7	8	9	2	1	5	7	1	1544725259	0.6417491436	0.6417491436
1544725260	1.208417177	3	135	1	4	7	8	10	2	1	5	7	1	1544725260	0.7084929943	0.7084929943
1544725261	1.200035095	3	136	1	4	7	8	11	1	1	4	7	1	1544725261	0.6168210506	0.6168210506
1544725262	1.200070858	3	137	1	4	7	8	12	2	1	4	7	1	1544725263	0.6834378242	0.6834378242
1544725264	1.208385944	3	138	1	4	7	8	13	1	2	4	7	1	1544725264	0.6085028648	0.6085028648
1544725265	1.200031042	3	139	1	4	7	8	14	1	1	3	7	1	1544725265	0.8000969887	0.8000969887
1544725266	1.200088978	3	140	1	4	7	8	15	2	1	3	7	1	1544725266	0.6500370502	0.6500370502
1544725267	1.191706896	3	141	1	4	7	8	16	2	2	3	7	1	1544725268	0.6668329239	0.6668329239
1544725268	1.200060129	3	142	1	4	7	8	17	1	1	4	7	0	1544725269	0.8084800243	0.8084800243
1544725270	1.191718817	3	143	1	4	7	8	18	2	2	4	7	1	1544725270	0.8584439754	0.8584439754
NaN	NaN	3	144	1	4	9	8	19	3	3	NaN	NaN	NaN	NaN	NaN	NaN
1544725272	1.191670895	3	145	1	4	9	9	1	3	3	4	7	NaN	NaN	NaN	NaN
1544725273	1.19177103	3	146	1	4	9	9	2	3	3	4	7	NaN	NaN	NaN	NaN
1544725274	1.191730022	3	147	1	4	9	9	3	3	3	4	7	NaN	NaN	NaN	NaN
1544725275	1.191725969	3	148	1	4	9	9	4	3	3	4	7	NaN	NaN	NaN	NaN
1544725277	1.191711187	3	149	1	4	9	9	5	3	3	4	7	NaN	NaN	NaN	NaN
1544725278	1.191782951	3	150	1	4	9	9	6	3	3	4	7	NaN	NaN	NaN	NaN
1544725279	1.191781998	3	151	1	4	9	9	7	3	3	4	7	NaN	NaN	NaN	NaN
1544725280	1.191681147	3	152	1	4	9	9	8	3	3	4	7	NaN	NaN	NaN	NaN
1544725281	1.191759109	3	153	1	4	9	9	9	3	3	4	7	NaN	NaN	NaN	NaN
NaN	NaN	3	154	1	4	9	9	10	3	3	NaN	NaN	NaN	NaN	NaN	NaN
