onset	duration	run_number	trial_number	att_task	fix_direction	bar_period	bar_direction	bar_step	fix_noise_ori	stim_noise_ori	fix_stair_val	stim_stair_val	response_val	probe_time	reaction_time	reaction_time
1544724794	1.191433907	2	1	2	4	9	1	1	3	3	4	5	NaN	NaN	NaN	NaN
1544724795	1.191666842	2	2	2	4	9	1	2	3	3	4	5	NaN	NaN	NaN	NaN
1544724796	1.191583157	2	3	2	4	9	1	3	3	3	4	5	NaN	NaN	NaN	NaN
1544724798	1.191729069	2	4	2	4	9	1	4	3	3	4	5	NaN	NaN	NaN	NaN
1544724799	1.191728115	2	5	2	4	9	1	5	3	3	4	5	NaN	NaN	NaN	NaN
1544724800	1.191770077	2	6	2	4	9	1	6	3	3	4	5	NaN	NaN	NaN	NaN
1544724801	1.191817045	2	7	2	4	9	1	7	3	3	4	5	NaN	NaN	NaN	NaN
1544724802	1.191640139	2	8	2	4	9	1	8	3	3	4	5	NaN	NaN	NaN	NaN
1544724804	1.191720009	2	9	2	4	9	1	9	3	3	4	5	NaN	NaN	NaN	NaN
NaN	NaN	2	10	2	4	9	1	10	3	3	NaN	NaN	NaN	NaN	NaN	NaN
1544724806	1.191035986	2	11	2	4	1	2	1	2	1	4	5	NaN	1544724806	NaN	NaN
1544724807	1.200049877	2	12	2	4	1	2	2	1	1	4	6	0	1544724807	0.4587659836	0.4587659836
1544724808	1.200150967	2	13	2	4	1	2	3	1	2	4	6	1	1544724809	0.533536911	0.533536911
1544724810	1.20005703	2	14	2	4	1	2	4	2	1	4	7	0	1544724810	0.6502709389	0.6502709389
1544724811	1.191712856	2	15	2	4	1	2	5	2	2	4	7	1	1544724811	0.7580759525	0.7580759525
1544724812	1.20004797	2	16	2	4	1	2	6	1	1	4	7	1	1544724812	0.7501480579	0.7501480579
1544724813	1.200082064	2	17	2	4	1	2	7	1	2	4	7	1	1544724813	0.9095730782	0.9095730782
1544724814	1.200057983	2	18	2	4	1	2	8	2	1	4	6	1	1544724815	0.8587908745	0.8587908745
1544724816	1.191656828	2	19	2	4	1	2	9	2	1	4	6	NaN	1544724816	NaN	NaN
1544724817	1.191756964	2	20	2	4	1	2	10	2	2	4	6	1	1544724817	0.8335590363	0.8335590363
1544724818	1.191754103	2	21	2	4	1	2	11	2	2	4	5	1	1544724818	0.8086409569	0.8086409569
1544724819	1.200002193	2	22	2	4	1	2	12	2	2	4	5	1	1544724820	0.8837590218	0.8837590218
1544724820	1.200036049	2	23	2	4	1	2	13	1	2	4	5	1	1544724821	0.8251430988	0.8251430988
1544724822	1.191657066	2	24	2	4	1	2	14	2	1	4	4	1	1544724822	0.8005478382	0.8005478382
1544724823	1.200021029	2	25	2	4	1	2	15	1	1	4	4	1	1544724823	0.7838029861	0.7838029861
1544724824	1.200082064	2	26	2	4	1	2	16	1	1	4	5	0	1544724824	0.8003220558	0.8003220558
1544724825	1.200050116	2	27	2	4	1	2	17	1	1	4	5	NaN	1544724826	NaN	NaN
1544724826	1.200015068	2	28	2	4	1	2	18	1	1	4	5	NaN	1544724827	NaN	NaN
1544724828	1.200092793	2	29	2	4	1	2	19	1	2	4	5	NaN	1544724828	NaN	NaN
1544724829	1.191730976	2	30	2	4	1	2	20	1	2	4	5	NaN	1544724829	NaN	NaN
1544724830	1.200109959	2	31	2	4	1	2	21	1	1	4	5	1	1544724830	0.2928180695	0.2928180695
1544724831	1.191753864	2	32	2	4	1	2	22	1	2	4	5	1	1544724832	0.5834619999	0.5834619999
1544724832	1.200026035	2	33	2	4	1	2	23	2	2	4	5	NaN	1544724833	NaN	NaN
1544724834	1.20005393	2	34	2	4	1	2	24	2	1	4	5	NaN	1544724834	NaN	NaN
1544724835	1.200075865	2	35	2	4	1	2	25	2	1	4	4	1	1544724835	0.7670381069	0.7670381069
1544724836	1.200032949	2	36	2	4	1	2	26	1	2	4	4	1	1544724836	0.7834379673	0.7834379673
1544724837	1.191732883	2	37	2	4	1	2	27	1	1	4	5	0	1544724838	0.7502019405	0.7502019405
1544724839	1.200073957	2	38	2	4	1	2	28	2	2	4	5	1	1544724839	0.7751100063	0.7751100063
1544724840	1.200041056	2	39	2	4	1	2	29	2	1	4	5	0	1544724840	0.9086871147	0.9086871147
1544724841	1.200068951	2	40	2	4	1	2	30	1	1	4	6	NaN	1544724841	NaN	NaN
1544724842	1.200079918	2	41	2	4	1	2	31	1	1	4	6	NaN	1544724842	NaN	NaN
1544724843	1.191721916	2	42	2	4	1	2	32	2	2	4	6	NaN	1544724844	NaN	NaN
NaN	NaN	2	43	2	4	9	2	33	3	3	NaN	NaN	NaN	NaN	NaN	NaN
1544724846	1.191438913	2	44	2	4	9	3	1	3	3	4	6	NaN	NaN	NaN	NaN
1544724847	1.191429853	2	45	2	4	9	3	2	3	3	4	6	NaN	NaN	NaN	NaN
1544724848	1.191733837	2	46	2	4	9	3	3	3	3	4	6	NaN	NaN	NaN	NaN
1544724849	1.191751003	2	47	2	4	9	3	4	3	3	4	6	NaN	NaN	NaN	NaN
1544724850	1.191669941	2	48	2	4	9	3	5	3	3	4	6	NaN	NaN	NaN	NaN
1544724852	1.191693068	2	49	2	4	9	3	6	3	3	4	6	NaN	NaN	NaN	NaN
1544724853	1.191758871	2	50	2	4	9	3	7	3	3	4	6	NaN	NaN	NaN	NaN
1544724854	1.191635132	2	51	2	4	9	3	8	3	3	4	6	NaN	NaN	NaN	NaN
1544724855	1.191768169	2	52	2	4	9	3	9	3	3	4	6	NaN	NaN	NaN	NaN
NaN	NaN	2	53	2	4	9	3	10	3	3	NaN	NaN	NaN	NaN	NaN	NaN
1544724857	1.208083868	2	54	2	4	3	4	1	1	2	4	7	0	1544724857	0.4504320621	0.4504320621
1544724858	1.191653967	2	55	2	4	3	4	2	2	1	4	7	1	1544724858	0.7417969704	0.7417969704
1544724859	1.200008869	2	56	2	4	3	4	3	1	2	4	7	1	1544724859	0.8587770462	0.8587770462
1544724860	1.191757917	2	57	2	4	3	4	4	2	1	4	6	1	1544724860	0.8001050949	0.8001050949
1544724861	1.200088024	2	58	2	4	3	4	5	1	1	4	6	1	1544724862	0.8251740932	0.8251740932
1544724863	1.200051785	2	59	2	4	3	4	6	1	2	4	6	NaN	1544724863	NaN	NaN
1544724864	1.200153828	2	60	2	4	3	4	7	1	2	4	6	NaN	1544724864	NaN	NaN
1544724865	1.199909925	2	61	2	4	3	4	8	2	2	4	6	1	1544724865	0.9001829624	0.9001829624
1544724866	1.20009613	2	62	2	4	3	4	9	1	2	4	6	NaN	1544724866	NaN	NaN
1544724867	1.200073957	2	63	2	4	3	4	10	2	1	4	6	NaN	1544724868	NaN	NaN
1544724869	1.200058937	2	64	2	4	3	4	11	1	1	4	6	NaN	1544724869	NaN	NaN
1544724870	1.20006299	2	65	2	4	3	4	12	1	2	4	5	1	1544724870	0.8334040642	0.8334040642
1544724871	1.19165206	2	66	2	4	3	4	13	2	2	4	5	1	1544724871	0.8334949017	0.8334949017
1544724872	1.191579103	2	67	2	4	3	4	14	2	1	4	5	NaN	1544724872	NaN	NaN
1544724873	1.191710949	2	68	2	4	3	4	15	1	2	4	5	1	1544724874	0.2751100063	0.2751100063
1544724875	1.200063944	2	69	2	4	3	4	16	1	1	4	6	0	1544724875	0.4252181053	0.4252181053
1544724876	1.191626072	2	70	2	4	3	4	17	1	2	4	7	0	1544724876	0.7251391411	0.7251391411
1544724877	1.200063944	2	71	2	4	3	4	18	1	1	4	7	NaN	1544724877	NaN	NaN
NaN	NaN	2	72	2	4	9	4	19	3	3	NaN	NaN	NaN	NaN	NaN	NaN
1544724879	1.191802979	2	73	2	4	9	5	1	3	3	4	7	NaN	NaN	NaN	NaN
1544724880	1.191761017	2	74	2	4	9	5	2	3	3	4	7	NaN	NaN	NaN	NaN
1544724882	1.191692114	2	75	2	4	9	5	3	3	3	4	7	NaN	NaN	NaN	NaN
1544724883	1.191710949	2	76	2	4	9	5	4	3	3	4	7	NaN	NaN	NaN	NaN
1544724884	1.191742897	2	77	2	4	9	5	5	3	3	4	7	NaN	NaN	NaN	NaN
1544724885	1.191758871	2	78	2	4	9	5	6	3	3	4	7	NaN	NaN	NaN	NaN
1544724886	1.191734791	2	79	2	4	9	5	7	3	3	4	7	NaN	NaN	NaN	NaN
1544724888	1.191884041	2	80	2	4	9	5	8	3	3	4	7	NaN	NaN	NaN	NaN
1544724889	1.191794157	2	81	2	4	9	5	9	3	3	4	7	NaN	NaN	NaN	NaN
NaN	NaN	2	82	2	4	9	5	10	3	3	NaN	NaN	NaN	NaN	NaN	NaN
1544724890	1.191264868	2	83	2	4	5	6	1	1	2	4	7	1	1544724890	0.5005991459	0.5005991459
1544724891	1.200101137	2	84	2	4	5	6	2	2	2	4	7	1	1544724892	0.4834389687	0.4834389687
1544724893	1.191854954	2	85	2	4	5	6	3	1	1	4	6	1	1544724893	0.7250568867	0.7250568867
1544724894	1.200055122	2	86	2	4	5	6	4	1	1	4	6	1	1544724894	0.8333671093	0.8333671093
1544724895	1.200058937	2	87	2	4	5	6	5	1	2	4	6	1	1544724895	0.7667808533	0.7667808533
1544724896	1.191704988	2	88	2	4	5	6	6	1	1	4	5	1	1544724896	0.6834070683	0.6834070683
1544724897	1.191675901	2	89	2	4	5	6	7	2	2	4	5	1	1544724898	0.6917800903	0.6917800903
1544724899	1.191774845	2	90	2	4	5	6	8	1	2	4	6	0	1544724899	0.7501020432	0.7501020432
1544724900	1.191809177	2	91	2	4	5	6	9	2	1	4	6	1	1544724900	0.775124073	0.775124073
1544724901	1.200064898	2	92	2	4	5	6	10	1	2	4	6	1	1544724901	0.7751579285	0.7751579285
1544724902	1.200088978	2	93	2	4	5	6	11	2	1	4	5	1	1544724902	0.7334959507	0.7334959507
1544724903	1.191791773	2	94	2	4	5	6	12	1	1	4	5	1	1544724904	0.7584450245	0.7584450245
1544724905	1.200047016	2	95	2	4	5	6	13	2	1	4	5	1	1544724905	0.8000741005	0.8000741005
1544724906	1.200009108	2	96	2	4	5	6	14	2	1	4	5	1	1544724906	0.8667719364	0.8667719364
1544724907	1.200062037	2	97	2	4	5	6	15	1	2	4	4	NaN	1544724907	NaN	NaN
1544724908	1.191623926	2	98	2	4	5	6	16	2	1	4	4	NaN	1544724908	NaN	NaN
1544724909	1.200032949	2	99	2	4	5	6	17	1	2	4	4	1	1544724910	0.8501150608	0.8501150608
1544724911	1.191679001	2	100	2	4	5	6	18	1	1	4	4	NaN	1544724911	NaN	NaN
1544724912	1.191677094	2	101	2	4	5	6	19	1	1	4	4	NaN	1544724912	NaN	NaN
1544724913	1.191704035	2	102	2	4	5	6	20	1	1	4	4	NaN	1544724913	NaN	NaN
1544724914	1.200042009	2	103	2	4	5	6	21	2	2	4	4	NaN	1544724914	NaN	NaN
1544724915	1.19999814	2	104	2	4	5	6	22	1	2	4	4	NaN	1544724916	NaN	NaN
1544724917	1.200005054	2	105	2	4	5	6	23	1	1	4	5	0	1544724917	0.02513408661	0.02513408661
1544724918	1.200081825	2	106	2	4	5	6	24	2	2	4	5	1	1544724918	0.05838608742	0.05838608742
1544724919	1.200051069	2	107	2	4	5	6	25	1	1	4	6	0	1544724919	0.07509493828	0.07509493828
1544724920	1.200028896	2	108	2	4	5	6	26	2	1	4	7	0	1544724921	0.791834116	0.791834116
1544724921	1.199953079	2	109	2	4	5	6	27	2	2	4	7	NaN	1544724922	NaN	NaN
1544724923	1.200063944	2	110	2	4	5	6	28	1	2	4	7	NaN	1544724923	NaN	NaN
1544724924	1.191809177	2	111	2	4	5	6	29	2	2	4	7	NaN	1544724924	NaN	NaN
1544724925	1.200083017	2	112	2	4	5	6	30	1	1	4	8	0	1544724925	0.07512688637	0.07512688637
1544724926	1.200040102	2	113	2	4	5	6	31	1	1	4	8	NaN	1544724927	NaN	NaN
1544724927	1.191725969	2	114	2	4	5	6	32	2	2	4	9	0	1544724928	0.06685805321	0.06685805321
NaN	NaN	2	115	2	4	9	6	33	3	3	NaN	NaN	NaN	NaN	NaN	NaN
1544724930	1.191673994	2	116	2	4	9	7	1	3	3	4	9	NaN	NaN	NaN	NaN
1544724931	1.191653967	2	117	2	4	9	7	2	3	3	4	9	NaN	NaN	NaN	NaN
1544724932	1.191699028	2	118	2	4	9	7	3	3	3	4	9	NaN	NaN	NaN	NaN
1544724933	1.191706181	2	119	2	4	9	7	4	3	3	4	9	NaN	NaN	NaN	NaN
1544724934	1.19177103	2	120	2	4	9	7	5	3	3	4	9	NaN	NaN	NaN	NaN
1544724936	1.191744089	2	121	2	4	9	7	6	3	3	4	9	NaN	NaN	NaN	NaN
1544724937	1.191727877	2	122	2	4	9	7	7	3	3	4	9	NaN	NaN	NaN	NaN
1544724938	1.191735029	2	123	2	4	9	7	8	3	3	4	9	NaN	NaN	NaN	NaN
1544724939	1.191744089	2	124	2	4	9	7	9	3	3	4	9	NaN	NaN	NaN	NaN
NaN	NaN	2	125	2	4	9	7	10	3	3	NaN	NaN	NaN	NaN	NaN	NaN
1544724940	1.191802025	2	126	2	4	7	8	1	2	2	4	9	1	1544724941	0.5000729561	0.5000729561
1544724942	1.200181007	2	127	2	4	7	8	2	1	1	4	9	1	1544724942	0.6501090527	0.6501090527
1544724943	1.208405972	2	128	2	4	7	8	3	2	1	4	8	1	1544724943	0.7167589664	0.7167589664
1544724944	1.200055122	2	129	2	4	7	8	4	2	1	4	8	1	1544724944	0.7002029419	0.7002029419
1544724945	1.199988127	2	130	2	4	7	8	5	1	2	4	8	1	1544724946	0.7168300152	0.7168300152
1544724947	1.200161934	2	131	2	4	7	8	6	1	2	4	7	1	1544724947	0.6334340572	0.6334340572
1544724948	1.200058937	2	132	2	4	7	8	7	1	2	4	7	1	1544724948	0.7001268864	0.7001268864
1544724949	1.200057983	2	133	2	4	7	8	8	2	2	4	7	1	1544724949	0.7084701061	0.7084701061
1544724950	1.191720009	2	134	2	4	7	8	9	1	2	4	6	1	1544724950	0.7167818546	0.7167818546
1544724951	1.191754103	2	135	2	4	7	8	10	1	2	4	7	0	1544724952	0.7919709682	0.7919709682
1544724953	1.200093985	2	136	2	4	7	8	11	2	1	4	7	1	1544724953	0.816808939	0.816808939
1544724954	1.200052977	2	137	2	4	7	8	12	1	1	4	7	1	1544724954	0.7751250267	0.7751250267
1544724955	1.200015068	2	138	2	4	7	8	13	1	1	4	6	1	1544724955	0.7250859737	0.7250859737
1544724956	1.200073004	2	139	2	4	7	8	14	2	2	4	6	1	1544724956	0.8167898655	0.8167898655
1544724957	1.20009017	2	140	2	4	7	8	15	2	2	4	6	1	1544724958	0.7836129665	0.7836129665
1544724959	1.191634893	2	141	2	4	7	8	16	2	2	4	6	0	1544724959	0.8668870926	0.8668870926
1544724960	1.191730976	2	142	2	4	7	8	17	2	1	4	7	1	1544724960	0.7751159668	0.7751159668
1544724961	1.200089931	2	143	2	4	7	8	18	1	2	4	7	NaN	1544724961	NaN	NaN
NaN	NaN	2	144	2	4	9	8	19	3	3	NaN	NaN	NaN	NaN	NaN	NaN
1544724963	1.191628933	2	145	2	4	9	9	1	3	3	4	7	NaN	NaN	NaN	NaN
1544724964	1.191640854	2	146	2	4	9	9	2	3	3	4	7	NaN	NaN	NaN	NaN
1544724966	1.191730976	2	147	2	4	9	9	3	3	3	4	7	NaN	NaN	NaN	NaN
1544724967	1.19172287	2	148	2	4	9	9	4	3	3	4	7	NaN	NaN	NaN	NaN
1544724968	1.191712856	2	149	2	4	9	9	5	3	3	4	7	NaN	NaN	NaN	NaN
1544724969	1.191779137	2	150	2	4	9	9	6	3	3	4	7	NaN	NaN	NaN	NaN
1544724970	1.191632032	2	151	2	4	9	9	7	3	3	4	7	NaN	NaN	NaN	NaN
1544724972	1.191627979	2	152	2	4	9	9	8	3	3	4	7	NaN	NaN	NaN	NaN
1544724973	1.191713095	2	153	2	4	9	9	9	3	3	4	7	NaN	NaN	NaN	NaN
NaN	NaN	2	154	2	4	9	9	10	3	3	NaN	NaN	NaN	NaN	NaN	NaN
