onset	duration	run_number	trial_number	att_task	fix_direction	bar_period	bar_direction	bar_step	fix_noise_ori	stim_noise_ori	fix_stair_val	stim_stair_val	response_val	probe_time	reaction_time
1545317236	1.191504002	2	1	2	4	9	1	1	3	3	5	9	n/a	n/a	n/a
1545317237	1.191590071	2	2	2	4	9	1	2	3	3	5	9	n/a	n/a	n/a
1545317238	1.191821098	2	3	2	4	9	1	3	3	3	5	9	n/a	n/a	n/a
1545317239	1.19177103	2	4	2	4	9	1	4	3	3	5	9	n/a	n/a	n/a
1545317241	1.191722155	2	5	2	4	9	1	5	3	3	5	9	n/a	n/a	n/a
1545317242	1.191669941	2	6	2	4	9	1	6	3	3	5	9	n/a	n/a	n/a
1545317243	1.191792011	2	7	2	4	9	1	7	3	3	5	9	n/a	n/a	n/a
1545317244	1.191689968	2	8	2	4	9	1	8	3	3	5	9	n/a	n/a	n/a
1545317245	1.191695929	2	9	2	4	9	1	9	3	3	5	9	n/a	n/a	n/a
1545317247	1.191762924	2	10	2	4	9	1	10	3	3	5	9	n/a	n/a	n/a
1545317248	1.213196993	2	11	2	4	1	2	1	2	1	5	8	1	1545317248	0.8419139385
1545317249	1.200030088	2	12	2	4	1	2	2	2	1	5	8	1	1545317250	0.8418991566
1545317250	1.200067043	2	13	2	4	1	2	3	2	1	5	8	n/a	1545317251	n/a
1545317252	1.20005393	2	14	2	4	1	2	4	1	1	5	8	n/a	1545317252	n/a
1545317253	1.200021982	2	15	2	4	1	2	5	2	1	5	8	n/a	1545317253	n/a
1545317254	1.199982882	2	16	2	4	1	2	6	2	1	5	8	0	1545317254	0.8916289806
1545317255	1.200066805	2	17	2	4	1	2	7	1	1	5	9	1	1545317256	0.7089231014
1545317256	1.200150013	2	18	2	4	1	2	8	2	2	5	9	1	1545317257	0.6835911274
1545317258	1.19172883	2	19	2	4	1	2	9	1	2	5	8	1	1545317258	0.7336480618
1545317259	1.200046062	2	20	2	4	1	2	10	2	2	5	8	1	1545317259	0.8172938824
1545317260	1.200139999	2	21	2	4	1	2	11	2	1	5	8	1	1545317260	0.7336530685
1545317261	1.200094938	2	22	2	4	1	2	12	2	2	5	7	1	1545317262	0.6763060093
1545317263	1.200037956	2	23	2	4	1	2	13	2	1	5	7	n/a	1545317263	n/a
1545317264	1.200118065	2	24	2	4	1	2	14	1	1	5	8	0	1545317264	0.8086709976
1545317265	1.200073957	2	25	2	4	1	2	15	2	2	5	8	1	1545317265	0.8086431026
1545317266	1.200113058	2	26	2	4	1	2	16	2	1	5	8	1	1545317266	0.8513319492
1545317267	1.200062037	2	27	2	4	1	2	17	1	2	5	8	n/a	1545317268	n/a
1545317269	1.191601038	2	28	2	4	1	2	18	2	2	5	8	n/a	1545317269	n/a
1545317270	1.20008111	2	29	2	4	1	2	19	1	1	5	8	n/a	1545317270	n/a
1545317271	1.20005703	2	30	2	4	1	2	20	1	2	5	7	1	1545317271	0.5588181019
1545317272	1.199971914	2	31	2	4	1	2	21	2	2	5	7	1	1545317272	0.5084431171
1545317273	1.191722155	2	32	2	4	1	2	22	2	2	5	7	1	1545317274	0.5838220119
1545317275	1.200026035	2	33	2	4	1	2	23	1	1	5	8	0	1545317275	0.6334488392
1545317276	1.199969053	2	34	2	4	1	2	24	1	1	5	8	1	1545317276	0.900192976
1545317277	1.19998908	2	35	2	4	1	2	25	1	1	5	9	0	1545317277	0.83355093
1545317278	1.200103045	2	36	2	4	1	2	26	1	2	5	9	1	1545317279	0.866767168
1545317279	1.191706896	2	37	2	4	1	2	27	1	1	5	10	0	1545317280	0.775398016
1545317281	1.200078011	2	38	2	4	1	2	28	2	1	5	10	1	1545317281	0.8000819683
1545317282	1.20008707	2	39	2	4	1	2	29	2	1	5	11	0	1545317282	0.6750981808
1545317283	1.200093031	2	40	2	4	1	2	30	2	2	5	11	1	1545317283	0.6252999306
1545317284	1.200045824	2	41	2	4	1	2	31	1	1	5	12	0	1545317285	0.4334499836
1545317285	1.200062037	2	42	2	4	1	2	32	1	1	5	12	1	1545317286	0.4501039982
1545317287	1.207088947	2	43	2	4	9	3	1	3	3	5	12	n/a	n/a	n/a
1545317288	1.191488981	2	44	2	4	9	3	2	3	3	5	12	n/a	n/a	n/a
1545317289	1.191738129	2	45	2	4	9	3	3	3	3	5	12	n/a	n/a	n/a
1545317290	1.191735983	2	46	2	4	9	3	4	3	3	5	12	n/a	n/a	n/a
1545317292	1.191742897	2	47	2	4	9	3	5	3	3	5	12	n/a	n/a	n/a
1545317293	1.191833019	2	48	2	4	9	3	6	3	3	5	12	n/a	n/a	n/a
1545317294	1.191817045	2	49	2	4	9	3	7	3	3	5	12	n/a	n/a	n/a
1545317295	1.191655874	2	50	2	4	9	3	8	3	3	5	12	n/a	n/a	n/a
1545317296	1.191710949	2	51	2	4	9	3	9	3	3	5	12	n/a	n/a	n/a
1545317298	1.191777945	2	52	2	4	9	3	10	3	3	5	12	n/a	n/a	n/a
1545317299	1.20770812	2	53	2	4	3	4	1	2	1	5	12	n/a	1545317299	n/a
1545317300	1.199742079	2	54	2	4	3	4	2	2	1	5	12	n/a	1545317300	n/a
1545317301	1.191742897	2	55	2	4	3	4	3	1	2	5	13	0	1545317302	0.7171471119
1545317303	1.208490133	2	56	2	4	3	4	4	2	1	5	13	1	1545317303	0.7417700291
1545317304	1.208398104	2	57	2	4	3	4	5	2	1	5	13	1	1545317304	0.7167840004
1545317305	1.200027943	2	58	2	4	3	4	6	1	1	5	12	1	1545317305	0.6417460442
1545317306	1.208439112	2	59	2	4	3	4	7	2	2	5	12	1	1545317307	0.5251979828
1545317307	1.200048923	2	60	2	4	3	4	8	1	2	5	12	1	1545317308	0.5501630306
1545317309	1.200109959	2	61	2	4	3	4	9	1	1	5	11	1	1545317309	0.5418450832
1545317310	1.200078964	2	62	2	4	3	4	10	1	1	5	11	1	1545317310	0.600039959
1545317311	1.208410978	2	63	2	4	3	4	11	2	2	5	11	1	1545317311	0.6417369843
1545317312	1.200037003	2	64	2	4	3	4	12	2	1	5	10	1	1545317313	0.6417660713
1545317313	1.200035095	2	65	2	4	3	4	13	2	1	5	10	1	1545317314	0.7334218025
1545317315	1.200062037	2	66	2	4	3	4	14	2	1	5	10	1	1545317315	0.7167861462
1545317316	1.200021982	2	67	2	4	3	4	15	1	1	5	9	1	1545317316	0.8084390163
1545317317	1.200042963	2	68	2	4	3	4	16	1	1	5	9	n/a	1545317317	n/a
1545317318	1.20004487	2	69	2	4	3	4	17	2	2	5	9	1	1545317319	0.775124073
1545317320	1.200022936	2	70	2	4	3	4	18	2	2	5	9	1	1545317320	0.8334748745
1545317321	1.199877024	2	71	2	4	9	5	1	3	3	5	9	n/a	n/a	n/a
1545317322	1.191743135	2	72	2	4	9	5	2	3	3	5	9	n/a	n/a	n/a
1545317323	1.191716909	2	73	2	4	9	5	3	3	3	5	9	n/a	n/a	n/a
1545317325	1.191756964	2	74	2	4	9	5	4	3	3	5	9	n/a	n/a	n/a
1545317326	1.191730976	2	75	2	4	9	5	5	3	3	5	9	n/a	n/a	n/a
1545317327	1.191745043	2	76	2	4	9	5	6	3	3	5	9	n/a	n/a	n/a
1545317328	1.191715002	2	77	2	4	9	5	7	3	3	5	9	n/a	n/a	n/a
1545317329	1.191756964	2	78	2	4	9	5	8	3	3	5	9	n/a	n/a	n/a
1545317331	1.191761017	2	79	2	4	9	5	9	3	3	5	9	n/a	n/a	n/a
1545317332	1.191682816	2	80	2	4	9	5	10	3	3	5	9	n/a	n/a	n/a
1545317333	1.207836866	2	81	2	4	5	6	1	1	2	5	10	0	1545317333	0.3919849396
1545317334	1.200066805	2	82	2	4	5	6	2	2	2	5	10	1	1545317335	0.4917929173
1545317335	1.199933052	2	83	2	4	5	6	3	1	1	5	11	0	1545317336	0.5251278877
1545317337	1.200011015	2	84	2	4	5	6	4	1	2	5	11	1	1545317337	0.3917899132
1545317338	1.200006008	2	85	2	4	5	6	5	1	2	5	11	1	1545317338	0.3917701244
1545317339	1.191766977	2	86	2	4	5	6	6	1	1	5	11	n/a	1545317339	n/a
1545317340	1.2000072	2	87	2	4	5	6	7	1	2	5	10	1	1545317341	0.7000851631
1545317342	1.200063944	2	88	2	4	5	6	8	2	2	5	10	1	1545317342	0.6751010418
1545317343	1.200054169	2	89	2	4	5	6	9	2	1	5	10	1	1545317343	0.6834499836
1545317344	1.191720009	2	90	2	4	5	6	10	1	1	5	9	1	1545317344	0.6583931446
1545317345	1.200067043	2	91	2	4	5	6	11	1	2	5	9	1	1545317345	0.5835580826
1545317346	1.191755056	2	92	2	4	5	6	12	2	1	5	9	1	1545317347	0.5167779922
1545317348	1.199981928	2	93	2	4	5	6	13	1	1	5	8	1	1545317348	0.5000958443
1545317349	1.20002985	2	94	2	4	5	6	14	1	2	5	8	n/a	1545317349	n/a
1545317350	1.19173193	2	95	2	4	5	6	15	2	2	5	8	n/a	1545317350	n/a
1545317351	1.200092077	2	96	2	4	5	6	16	2	2	5	8	n/a	1545317351	n/a
1545317352	1.200067997	2	97	2	4	5	6	17	2	2	5	8	1	1545317353	0.5251610279
1545317354	1.20006299	2	98	2	4	5	6	18	2	1	5	8	1	1545317354	0.6334779263
1545317355	1.200016022	2	99	2	4	5	6	19	1	2	5	7	1	1545317355	0.5417478085
1545317356	1.200083017	2	100	2	4	5	6	20	1	2	5	7	1	1545317356	0.725082159
1545317357	1.191699982	2	101	2	4	5	6	21	1	2	5	7	1	1545317357	0.7250249386
1545317358	1.199912786	2	102	2	4	5	6	22	1	2	5	6	1	1545317359	0.7251160145
1545317360	1.191736937	2	103	2	4	5	6	23	2	2	5	7	0	1545317360	0.7835249901
1545317361	1.200073004	2	104	2	4	5	6	24	1	2	5	7	1	1545317361	0.7084839344
1545317362	1.200058937	2	105	2	4	5	6	25	2	2	5	7	1	1545317362	0.7084259987
1545317363	1.200090885	2	106	2	4	5	6	26	2	2	5	7	n/a	1545317364	n/a
1545317364	1.200114012	2	107	2	4	5	6	27	1	1	5	6	1	1545317365	0.4501209259
1545317366	1.200046062	2	108	2	4	5	6	28	2	1	5	7	0	1545317366	0.4917809963
1545317367	1.200052023	2	109	2	4	5	6	29	1	1	5	7	1	1545317367	0.591894865
1545317368	1.19989419	2	110	2	4	5	6	30	1	1	5	7	1	1545317368	0.8001430035
1545317369	1.200048923	2	111	2	4	5	6	31	2	2	5	8	0	1545317370	0.7500970364
1545317370	1.191756964	2	112	2	4	5	6	32	2	2	5	9	0	1545317371	0.7337589264
1545317372	1.199764013	2	113	2	4	9	7	1	3	3	5	9	n/a	n/a	n/a
1545317373	1.191724062	2	114	2	4	9	7	2	3	3	5	9	n/a	n/a	n/a
1545317374	1.191686869	2	115	2	4	9	7	3	3	3	5	9	n/a	n/a	n/a
1545317375	1.191733122	2	116	2	4	9	7	4	3	3	5	9	n/a	n/a	n/a
1545317377	1.191595078	2	117	2	4	9	7	5	3	3	5	9	n/a	n/a	n/a
1545317378	1.191743851	2	118	2	4	9	7	6	3	3	5	9	n/a	n/a	n/a
1545317379	1.191697121	2	119	2	4	9	7	7	3	3	5	9	n/a	n/a	n/a
1545317380	1.191738129	2	120	2	4	9	7	8	3	3	5	9	n/a	n/a	n/a
1545317381	1.191787958	2	121	2	4	9	7	9	3	3	5	9	n/a	n/a	n/a
1545317383	1.191812038	2	122	2	4	9	7	10	3	3	5	9	n/a	n/a	n/a
1545317384	1.208086967	2	123	2	4	7	8	1	2	2	5	9	n/a	1545317384	n/a
1545317385	1.200067043	2	124	2	4	7	8	2	2	1	5	9	1	1545317385	0.7591340542
1545317386	1.191708088	2	125	2	4	7	8	3	2	1	5	9	1	1545317387	0.8084061146
1545317388	1.200030088	2	126	2	4	7	8	4	1	2	5	8	1	1545317388	0.8251800537
1545317389	1.20830512	2	127	2	4	7	8	5	1	1	5	8	1	1545317389	0.7668180466
1545317390	1.200063944	2	128	2	4	7	8	6	2	2	5	8	1	1545317390	0.8334150314
1545317391	1.200084925	2	129	2	4	7	8	7	2	1	5	7	1	1545317391	0.8418011665
1545317392	1.20006299	2	130	2	4	7	8	8	1	1	5	7	1	1545317393	0.8250961304
1545317394	1.199932098	2	131	2	4	7	8	9	2	2	5	7	1	1545317394	0.7751460075
1545317395	1.200001001	2	132	2	4	7	8	10	2	2	5	6	1	1545317395	0.6835360527
1545317396	1.208350897	2	133	2	4	7	8	11	1	2	5	6	1	1545317396	0.8084011078
1545317397	1.191745043	2	134	2	4	7	8	12	1	2	5	6	1	1545317398	0.6417620182
1545317398	1.20004797	2	135	2	4	7	8	13	2	1	5	5	1	1545317399	0.7084140778
1545317400	1.208476067	2	136	2	4	7	8	14	2	1	5	6	0	1545317400	0.6001341343
1545317401	1.208405018	2	137	2	4	7	8	15	1	1	5	6	1	1545317401	0.5751428604
1545317402	1.20005393	2	138	2	4	7	8	16	2	1	5	7	0	1545317402	0.5417711735
1545317403	1.191699028	2	139	2	4	7	8	17	2	1	5	7	1	1545317404	0.5834457874
1545317405	1.200079918	2	140	2	4	7	8	18	1	1	5	7	n/a	1545317405	n/a
1545317406	1.199742079	2	141	2	4	9	9	1	3	3	5	7	n/a	n/a	n/a
1545317407	1.191769123	2	142	2	4	9	9	2	3	3	5	7	n/a	n/a	n/a
1545317408	1.191748857	2	143	2	4	9	9	3	3	3	5	7	n/a	n/a	n/a
1545317409	1.191670895	2	144	2	4	9	9	4	3	3	5	7	n/a	n/a	n/a
1545317411	1.191689968	2	145	2	4	9	9	5	3	3	5	7	n/a	n/a	n/a
1545317412	1.191701889	2	146	2	4	9	9	6	3	3	5	7	n/a	n/a	n/a
1545317413	1.191668987	2	147	2	4	9	9	7	3	3	5	7	n/a	n/a	n/a
1545317414	1.191760063	2	148	2	4	9	9	8	3	3	5	7	n/a	n/a	n/a
1545317415	1.191822052	2	149	2	4	9	9	9	3	3	5	7	n/a	n/a	n/a
1545317417	1.191775084	2	150	2	4	9	9	10	3	3	5	7	n/a	n/a	n/a
