onset	duration	run_number	trial_number	att_task	fix_direction	bar_period	bar_direction	bar_step	fix_noise_ori	stim_noise_ori	fix_stair_val	stim_stair_val	response_val	probe_time	reaction_time	reaction_time
1544190730	1.19137001	1	1	1	1	9	1	1	3	3	9	9	NaN	NaN	NaN	NaN
1544190731	1.191732883	1	2	1	1	9	1	2	3	3	9	9	NaN	NaN	NaN	NaN
1544190732	1.191638947	1	3	1	1	9	1	3	3	3	9	9	NaN	NaN	NaN	NaN
1544190733	1.19184494	1	4	1	1	9	1	4	3	3	9	9	NaN	NaN	NaN	NaN
1544190735	1.19165206	1	5	1	1	9	1	5	3	3	9	9	NaN	NaN	NaN	NaN
1544190736	1.191738129	1	6	1	1	9	1	6	3	3	9	9	NaN	NaN	NaN	NaN
1544190737	1.191743851	1	7	1	1	9	1	7	3	3	9	9	NaN	NaN	NaN	NaN
1544190738	1.191641092	1	8	1	1	9	1	8	3	3	9	9	NaN	NaN	NaN	NaN
1544190739	1.19175005	1	9	1	1	9	1	9	3	3	9	9	NaN	NaN	NaN	NaN
NaN	NaN	1	10	1	1	9	1	10	3	3	NaN	NaN	NaN	NaN	NaN	NaN
1544190742	1.198960066	1	11	1	1	1	2	1	2	1	9	9	NaN	1544190742	NaN	NaN
1544190743	1.191687107	1	12	1	1	1	2	2	2	1	9	9	NaN	1544190743	NaN	NaN
1544190744	1.191677809	1	13	1	1	1	2	3	2	1	9	9	NaN	1544190745	NaN	NaN
1544190746	1.191749811	1	14	1	1	1	2	4	1	2	9	9	NaN	1544190746	NaN	NaN
1544190747	1.191696167	1	15	1	1	1	2	5	2	2	9	9	NaN	1544190747	NaN	NaN
1544190748	1.191729069	1	16	1	1	1	2	6	2	1	9	9	NaN	1544190748	NaN	NaN
1544190749	1.191708088	1	17	1	1	1	2	7	2	2	9	9	NaN	1544190749	NaN	NaN
1544190750	1.191645861	1	18	1	1	1	2	8	2	1	9	9	NaN	1544190751	NaN	NaN
1544190752	1.191827059	1	19	1	1	1	2	9	1	1	9	9	NaN	1544190752	NaN	NaN
1544190753	1.191714048	1	20	1	1	1	2	10	2	1	9	9	NaN	1544190753	NaN	NaN
1544190754	1.191694975	1	21	1	1	1	2	11	1	2	9	9	NaN	1544190754	NaN	NaN
1544190755	1.19175601	1	22	1	1	1	2	12	2	1	9	9	NaN	1544190755	NaN	NaN
1544190756	1.191643	1	23	1	1	1	2	13	1	2	9	9	NaN	1544190757	NaN	NaN
1544190758	1.191824913	1	24	1	1	1	2	14	2	2	9	9	NaN	1544190758	NaN	NaN
1544190759	1.191694975	1	25	1	1	1	2	15	1	1	9	9	NaN	1544190759	NaN	NaN
1544190760	1.191723824	1	26	1	1	1	2	16	2	1	9	9	NaN	1544190760	NaN	NaN
1544190761	1.191754818	1	27	1	1	1	2	17	1	1	9	9	NaN	1544190761	NaN	NaN
1544190762	1.191688061	1	28	1	1	1	2	18	1	2	9	9	NaN	1544190763	NaN	NaN
NaN	NaN	1	29	1	1	9	2	19	3	3	NaN	NaN	NaN	NaN	NaN	NaN
1544190765	1.191451073	1	30	1	1	9	3	1	3	3	9	9	NaN	NaN	NaN	NaN
1544190766	1.191534042	1	31	1	1	9	3	2	3	3	9	9	NaN	NaN	NaN	NaN
1544190767	1.191698074	1	32	1	1	9	3	3	3	3	9	9	NaN	NaN	NaN	NaN
1544190768	1.191666842	1	33	1	1	9	3	4	3	3	9	9	NaN	NaN	NaN	NaN
1544190770	1.191809177	1	34	1	1	9	3	5	3	3	9	9	NaN	NaN	NaN	NaN
1544190771	1.191675901	1	35	1	1	9	3	6	3	3	9	9	NaN	NaN	NaN	NaN
1544190772	1.191741943	1	36	1	1	9	3	7	3	3	9	9	NaN	NaN	NaN	NaN
1544190773	1.191609859	1	37	1	1	9	3	8	3	3	9	9	NaN	NaN	NaN	NaN
1544190774	1.191655874	1	38	1	1	9	3	9	3	3	9	9	NaN	NaN	NaN	NaN
NaN	NaN	1	39	1	1	9	3	10	3	3	NaN	NaN	NaN	NaN	NaN	NaN
1544190777	1.199779987	1	40	1	1	5	4	1	2	1	9	9	NaN	1544190777	NaN	NaN
1544190778	1.191717863	1	41	1	1	5	4	2	2	1	9	9	NaN	1544190778	NaN	NaN
1544190779	1.191696167	1	42	1	1	5	4	3	1	2	9	9	NaN	1544190779	NaN	NaN
1544190780	1.191693068	1	43	1	1	5	4	4	2	1	9	9	NaN	1544190781	NaN	NaN
1544190782	1.191728115	1	44	1	1	5	4	5	2	1	9	9	NaN	1544190782	NaN	NaN
1544190783	1.191678047	1	45	1	1	5	4	6	1	1	9	9	NaN	1544190783	NaN	NaN
1544190784	1.191634893	1	46	1	1	5	4	7	2	1	9	9	NaN	1544190784	NaN	NaN
1544190785	1.20004487	1	47	1	1	5	4	8	1	1	9	9	NaN	1544190785	NaN	NaN
1544190786	1.191687822	1	48	1	1	5	4	9	1	2	9	9	NaN	1544190787	NaN	NaN
1544190788	1.191725016	1	49	1	1	5	4	10	2	2	9	9	NaN	1544190788	NaN	NaN
1544190789	1.191690922	1	50	1	1	5	4	11	2	1	9	9	NaN	1544190789	NaN	NaN
1544190790	1.200006008	1	51	1	1	5	4	12	1	1	9	9	NaN	1544190790	NaN	NaN
1544190791	1.191776991	1	52	1	1	5	4	13	2	1	9	9	NaN	1544190791	NaN	NaN
1544190792	1.191756964	1	53	1	1	5	4	14	2	2	9	9	NaN	1544190793	NaN	NaN
1544190794	1.19172883	1	54	1	1	5	4	15	1	1	9	9	NaN	1544190794	NaN	NaN
1544190795	1.191720009	1	55	1	1	5	4	16	2	2	9	9	NaN	1544190795	NaN	NaN
1544190796	1.199990034	1	56	1	1	5	4	17	1	2	9	9	NaN	1544190796	NaN	NaN
1544190797	1.191722155	1	57	1	1	5	4	18	2	1	9	9	NaN	1544190797	NaN	NaN
NaN	NaN	1	58	1	1	9	4	19	3	3	NaN	NaN	NaN	NaN	NaN	NaN
1544190800	1.191792965	1	59	1	1	9	5	1	3	3	9	9	NaN	NaN	NaN	NaN
1544190801	1.191660881	1	60	1	1	9	5	2	3	3	9	9	NaN	NaN	NaN	NaN
1544190802	1.191730022	1	61	1	1	9	5	3	3	3	9	9	NaN	NaN	NaN	NaN
1544190803	1.191611052	1	62	1	1	9	5	4	3	3	9	9	NaN	NaN	NaN	NaN
1544190804	1.191761971	1	63	1	1	9	5	5	3	3	9	9	NaN	NaN	NaN	NaN
1544190806	1.191711903	1	64	1	1	9	5	6	3	3	9	9	NaN	NaN	NaN	NaN
1544190807	1.191707134	1	65	1	1	9	5	7	3	3	9	9	NaN	NaN	NaN	NaN
1544190808	1.191690207	1	66	1	1	9	5	8	3	3	9	9	NaN	NaN	NaN	NaN
1544190809	1.191626072	1	67	1	1	9	5	9	3	3	9	9	NaN	NaN	NaN	NaN
NaN	NaN	1	68	1	1	9	5	10	3	3	NaN	NaN	NaN	NaN	NaN	NaN
1544190812	1.191504955	1	69	1	1	1	6	1	1	1	9	9	NaN	1544190812	NaN	NaN
1544190813	1.191729069	1	70	1	1	1	6	2	1	2	9	9	NaN	1544190813	NaN	NaN
1544190814	1.191616774	1	71	1	1	1	6	3	2	2	9	9	NaN	1544190814	NaN	NaN
1544190815	1.191634893	1	72	1	1	1	6	4	2	2	9	9	NaN	1544190815	NaN	NaN
1544190816	1.191653967	1	73	1	1	1	6	5	2	2	9	9	NaN	1544190817	NaN	NaN
1544190818	1.200043917	1	74	1	1	1	6	6	1	1	9	9	NaN	1544190818	NaN	NaN
1544190819	1.1916852	1	75	1	1	1	6	7	2	2	9	9	NaN	1544190819	NaN	NaN
1544190820	1.200034142	1	76	1	1	1	6	8	1	2	9	9	NaN	1544190820	NaN	NaN
1544190821	1.191751957	1	77	1	1	1	6	9	1	1	9	9	NaN	1544190821	NaN	NaN
1544190822	1.19163084	1	78	1	1	1	6	10	1	1	9	9	NaN	1544190823	NaN	NaN
1544190824	1.1916821	1	79	1	1	1	6	11	1	2	9	9	NaN	1544190824	NaN	NaN
1544190825	1.191720009	1	80	1	1	1	6	12	1	2	9	9	NaN	1544190825	NaN	NaN
1544190826	1.191684961	1	81	1	1	1	6	13	1	1	9	9	NaN	1544190826	NaN	NaN
1544190827	1.191643	1	82	1	1	1	6	14	1	1	9	9	NaN	1544190827	NaN	NaN
1544190828	1.191694975	1	83	1	1	1	6	15	1	1	9	9	NaN	1544190829	NaN	NaN
1544190830	1.191692114	1	84	1	1	1	6	16	1	2	9	9	NaN	1544190830	NaN	NaN
1544190831	1.191654921	1	85	1	1	1	6	17	2	1	9	9	NaN	1544190831	NaN	NaN
1544190832	1.191706896	1	86	1	1	1	6	18	1	2	9	9	NaN	1544190832	NaN	NaN
NaN	NaN	1	87	1	1	9	6	19	3	3	NaN	NaN	NaN	NaN	NaN	NaN
1544190834	1.191790819	1	88	1	1	9	7	1	3	3	9	9	NaN	NaN	NaN	NaN
1544190836	1.191689014	1	89	1	1	9	7	2	3	3	9	9	NaN	NaN	NaN	NaN
1544190837	1.191699028	1	90	1	1	9	7	3	3	3	9	9	NaN	NaN	NaN	NaN
1544190838	1.191699982	1	91	1	1	9	7	4	3	3	9	9	NaN	NaN	NaN	NaN
1544190839	1.19165206	1	92	1	1	9	7	5	3	3	9	9	NaN	NaN	NaN	NaN
1544190840	1.19176507	1	93	1	1	9	7	6	3	3	9	9	NaN	NaN	NaN	NaN
1544190842	1.191715002	1	94	1	1	9	7	7	3	3	9	9	NaN	NaN	NaN	NaN
1544190843	1.191715956	1	95	1	1	9	7	8	3	3	9	9	NaN	NaN	NaN	NaN
1544190844	1.191716194	1	96	1	1	9	7	9	3	3	9	9	NaN	NaN	NaN	NaN
NaN	NaN	1	97	1	1	9	7	10	3	3	NaN	NaN	NaN	NaN	NaN	NaN
1544190846	1.191763163	1	98	1	1	5	8	1	2	2	9	9	NaN	1544190847	NaN	NaN
1544190848	1.191688061	1	99	1	1	5	8	2	2	1	9	9	NaN	1544190848	NaN	NaN
1544190849	1.191735983	1	100	1	1	5	8	3	2	2	9	9	NaN	1544190849	NaN	NaN
1544190850	1.191689968	1	101	1	1	5	8	4	1	1	9	9	NaN	1544190850	NaN	NaN
1544190851	1.191683054	1	102	1	1	5	8	5	1	1	9	9	NaN	1544190851	NaN	NaN
1544190852	1.191704988	1	103	1	1	5	8	6	2	1	9	9	NaN	1544190853	NaN	NaN
1544190854	1.191679001	1	104	1	1	5	8	7	2	2	9	9	NaN	1544190854	NaN	NaN
1544190855	1.191671848	1	105	1	1	5	8	8	1	2	9	9	NaN	1544190855	NaN	NaN
1544190856	1.191684961	1	106	1	1	5	8	9	2	1	9	9	NaN	1544190856	NaN	NaN
1544190857	1.191699028	1	107	1	1	5	8	10	2	1	9	9	NaN	1544190857	NaN	NaN
1544190858	1.191661835	1	108	1	1	5	8	11	2	1	9	9	NaN	1544190859	NaN	NaN
1544190860	1.191675901	1	109	1	1	5	8	12	1	2	9	9	NaN	1544190860	NaN	NaN
1544190861	1.191684961	1	110	1	1	5	8	13	1	1	9	9	NaN	1544190861	NaN	NaN
1544190862	1.191724062	1	111	1	1	5	8	14	1	2	9	9	NaN	1544190862	NaN	NaN
1544190863	1.191649199	1	112	1	1	5	8	15	2	1	9	9	NaN	1544190863	NaN	NaN
1544190864	1.191686869	1	113	1	1	5	8	16	2	2	9	9	NaN	1544190865	NaN	NaN
1544190866	1.191715956	1	114	1	1	5	8	17	2	1	9	9	NaN	1544190866	NaN	NaN
1544190867	1.191721916	1	115	1	1	5	8	18	1	2	9	9	NaN	1544190867	NaN	NaN
NaN	NaN	1	116	1	1	9	8	19	3	3	NaN	NaN	NaN	NaN	NaN	NaN
1544190869	1.19175601	1	117	1	1	9	9	1	3	3	9	9	NaN	NaN	NaN	NaN
1544190870	1.191753864	1	118	1	1	9	9	2	3	3	9	9	NaN	NaN	NaN	NaN
1544190872	1.191759109	1	119	1	1	9	9	3	3	3	9	9	NaN	NaN	NaN	NaN
1544190873	1.191635132	1	120	1	1	9	9	4	3	3	9	9	NaN	NaN	NaN	NaN
1544190874	1.191716909	1	121	1	1	9	9	5	3	3	9	9	NaN	NaN	NaN	NaN
1544190875	1.191730022	1	122	1	1	9	9	6	3	3	9	9	NaN	NaN	NaN	NaN
1544190876	1.191697121	1	123	1	1	9	9	7	3	3	9	9	NaN	NaN	NaN	NaN
1544190878	1.191825867	1	124	1	1	9	9	8	3	3	9	9	NaN	NaN	NaN	NaN
1544190879	1.191681147	1	125	1	1	9	9	9	3	3	9	9	NaN	NaN	NaN	NaN
NaN	NaN	1	126	1	1	9	9	10	3	3	NaN	NaN	NaN	NaN	NaN	NaN
