onset	duration	run_number	trial_number	att_task	fix_direction	bar_period	bar_direction	bar_step	fix_noise_ori	stim_noise_ori	fix_stair_val	stim_stair_val	response_val	probe_time	reaction_time	reaction_time
31145.09319	12.95075411	1	1	1	2	9	1	1	3	3	3	3	NaN	NaN	NaN	NaN
31158.23026	12.88120731	1	2	1	2	9	1	2	3	3	3	3	NaN	NaN	NaN	NaN
31171.29468	13.08880225	1	3	1	2	9	1	3	3	3	3	3	NaN	NaN	NaN	NaN
31184.56147	12.98609923	1	4	1	2	9	1	4	3	3	3	3	NaN	NaN	NaN	NaN
31197.73193	13.00791813	1	5	1	2	9	1	5	3	3	3	3	NaN	NaN	NaN	NaN
31210.91893	12.9619949	1	6	1	2	9	1	6	3	3	3	3	NaN	NaN	NaN	NaN
31224.06515	12.99118958	1	7	1	2	9	1	7	3	3	3	3	NaN	NaN	NaN	NaN
31237.22988	12.96448102	1	8	1	2	9	1	8	3	3	3	3	NaN	NaN	NaN	NaN
31250.36328	12.98266997	1	9	1	2	9	1	9	3	3	3	3	NaN	NaN	NaN	NaN
NaN	NaN	1	10	1	2	9	1	10	3	3	NaN	NaN	NaN	NaN	NaN	NaN
31276.73337	12.9545247	1	11	1	2	1	2	1	2	2	3	3	NaN	31279.85185	NaN	NaN
31289.87381	13.17803858	1	12	1	2	1	2	2	1	2	3	3	NaN	31293.05777	NaN	NaN
31303.24666	13.40857634	1	13	1	2	1	2	3	1	2	3	3	NaN	31306.43239	NaN	NaN
31316.85037	13.39226374	1	14	1	2	1	2	4	2	1	3	3	NaN	31320.08621	NaN	NaN
31330.44483	13.46308473	1	15	1	2	1	2	5	2	1	3	3	NaN	31333.7409	NaN	NaN
31344.10728	13.54927721	1	16	1	2	1	2	6	1	1	3	3	NaN	31347.39245	NaN	NaN
31357.85556	13.58581748	1	17	1	2	1	2	7	1	2	3	3	NaN	31361.17756	NaN	NaN
31371.6422	13.58267746	1	18	1	2	1	2	8	1	1	3	3	NaN	31374.94538	NaN	NaN
31385.43044	13.57926469	1	19	1	2	1	2	9	2	1	3	3	NaN	31388.74663	NaN	NaN
31399.21161	13.61725267	1	20	1	2	1	2	10	1	1	3	3	NaN	31402.51397	NaN	NaN
31413.03673	13.52397461	1	21	1	2	1	2	11	2	1	3	3	NaN	31416.34882	NaN	NaN
31426.76283	13.70049275	1	22	1	2	1	2	12	1	1	3	3	NaN	31430.11642	NaN	NaN
31440.66285	13.66739273	1	23	1	2	1	2	13	1	1	3	3	NaN	31444.06766	NaN	NaN
31454.53317	13.55147882	1	24	1	2	1	2	14	1	2	3	3	NaN	31457.83764	NaN	NaN
31468.2806	13.62826626	1	25	1	2	1	2	15	1	2	3	3	NaN	31471.63243	NaN	NaN
31482.10577	13.37997222	1	26	1	2	1	2	16	2	2	3	3	NaN	31485.40181	NaN	NaN
31495.69465	13.22299879	1	27	1	2	1	2	17	1	2	3	3	NaN	31498.97513	NaN	NaN
31509.11912	13.06909459	1	28	1	2	1	2	18	2	1	3	3	NaN	31512.25218	NaN	NaN
NaN	NaN	1	29	1	2	9	2	19	3	3	NaN	NaN	NaN	NaN	NaN	NaN
31535.4987	13.01143947	1	30	1	2	9	3	1	3	3	3	3	NaN	NaN	NaN	NaN
31548.68665	13.10232339	1	31	1	2	9	3	2	3	3	3	3	NaN	NaN	NaN	NaN
31561.9996	13.84964798	1	32	1	2	9	3	3	3	3	3	3	NaN	NaN	NaN	NaN
31576.02742	13.40787056	1	33	1	2	9	3	4	3	3	3	3	NaN	NaN	NaN	NaN
31589.62052	13.53536791	1	34	1	2	9	3	5	3	3	3	3	NaN	NaN	NaN	NaN
31603.35619	13.06720899	1	35	1	2	9	3	6	3	3	3	3	NaN	NaN	NaN	NaN
31616.60943	13.01503926	1	36	1	2	9	3	7	3	3	3	3	NaN	NaN	NaN	NaN
31629.81232	12.91984115	1	37	1	2	9	3	8	3	3	3	3	NaN	NaN	NaN	NaN
31642.91454	13.0358746	1	38	1	2	9	3	9	3	3	3	3	NaN	NaN	NaN	NaN
NaN	NaN	1	39	1	2	9	3	10	3	3	NaN	NaN	NaN	NaN	NaN	NaN
31669.29249	13.08775303	1	40	1	2	5	4	1	1	2	3	3	NaN	31672.41444	NaN	NaN
31682.56468	13.19406646	1	41	1	2	5	4	2	2	2	3	3	NaN	31685.75534	NaN	NaN
31695.94001	13.3974714	1	42	1	2	5	4	3	2	2	3	3	NaN	31699.18012	NaN	NaN
31709.52985	13.64345318	1	43	1	2	5	4	4	1	2	3	3	NaN	31712.89575	NaN	NaN
31723.37164	13.69417604	1	44	1	2	5	4	5	2	1	3	3	NaN	31726.66607	NaN	NaN
31737.28174	13.6851485	1	45	1	2	5	4	6	2	1	3	3	NaN	31740.63473	NaN	NaN
31751.18276	13.81993776	1	46	1	2	5	4	7	2	2	3	3	NaN	31754.52764	NaN	NaN
31765.21069	13.6756513	1	47	1	2	5	4	8	2	1	3	3	NaN	31768.62789	NaN	NaN
31779.09255	13.68319764	1	48	1	2	5	4	9	2	1	3	3	NaN	31782.44242	NaN	NaN
31792.98168	13.60814294	1	49	1	2	5	4	10	2	2	3	3	NaN	31796.3068	NaN	NaN
31806.79754	13.63807565	1	50	1	2	5	4	11	1	1	3	3	NaN	31810.12584	NaN	NaN
31820.64625	13.61502507	1	51	1	2	5	4	12	1	2	3	3	NaN	31823.95554	NaN	NaN
31834.46239	13.59496553	1	52	1	2	5	4	13	2	1	3	3	NaN	31837.72663	NaN	NaN
31848.2673	13.62413368	1	53	1	2	5	4	14	1	2	3	3	NaN	31851.59325	NaN	NaN
31862.09399	13.5900741	1	54	1	2	5	4	15	2	1	3	3	NaN	31865.42873	NaN	NaN
31875.88557	13.47449042	1	55	1	2	5	4	16	2	1	3	3	NaN	31879.20019	NaN	NaN
31889.55717	13.42045174	1	56	1	2	5	4	17	2	2	3	3	NaN	31892.86188	NaN	NaN
31903.17773	13.07308355	1	57	1	2	5	4	18	2	1	3	3	NaN	31906.30005	NaN	NaN
NaN	NaN	1	58	1	2	9	4	19	3	3	NaN	NaN	NaN	NaN	NaN	NaN
31929.59613	12.93544602	1	59	1	2	9	5	1	3	3	3	3	NaN	NaN	NaN	NaN
31942.71476	13.00584201	1	60	1	2	9	5	2	3	3	3	3	NaN	NaN	NaN	NaN
31955.89289	12.91661233	1	61	1	2	9	5	3	3	3	3	3	NaN	NaN	NaN	NaN
31968.98015	12.89735957	1	62	1	2	9	5	4	3	3	3	3	NaN	NaN	NaN	NaN
31982.05165	12.88535864	1	63	1	2	9	5	5	3	3	3	3	NaN	NaN	NaN	NaN
31995.11451	12.97191671	1	64	1	2	9	5	6	3	3	3	3	NaN	NaN	NaN	NaN
32008.2693	12.96583836	1	65	1	2	9	5	7	3	3	3	3	NaN	NaN	NaN	NaN
32021.42026	12.98520217	1	66	1	2	9	5	8	3	3	3	3	NaN	NaN	NaN	NaN
32034.58631	12.97146392	1	67	1	2	9	5	9	3	3	3	3	NaN	NaN	NaN	NaN
NaN	NaN	1	68	1	2	9	5	10	3	3	NaN	NaN	NaN	NaN	NaN	NaN
32060.96057	13.0148683	1	69	1	2	1	6	1	2	1	3	3	NaN	32064.06408	NaN	NaN
32074.1606	13.06540193	1	70	1	2	1	6	2	1	2	3	3	NaN	32077.29499	NaN	NaN
32087.42371	13.4205592	1	71	1	2	1	6	3	2	1	3	3	NaN	32090.65924	NaN	NaN
32101.04362	13.5829675	1	72	1	2	1	6	4	2	2	3	3	NaN	32104.32668	NaN	NaN
32114.83013	13.66961516	1	73	1	2	1	6	5	1	1	3	3	NaN	32118.11022	NaN	NaN
32128.69811	13.72125303	1	74	1	2	1	6	6	2	2	3	3	NaN	32132.06799	NaN	NaN
32142.61348	13.61497736	1	75	1	2	1	6	7	2	1	3	3	NaN	32145.91267	NaN	NaN
32156.44036	13.75872382	1	76	1	2	1	6	8	2	2	3	3	NaN	32159.76166	NaN	NaN
32170.40739	13.57599404	1	77	1	2	1	6	9	1	2	3	3	NaN	32173.72041	NaN	NaN
32184.18804	13.69422275	1	78	1	2	1	6	10	2	2	3	3	NaN	32187.53429	NaN	NaN
32198.08698	13.5744471	1	79	1	2	1	6	11	2	1	3	3	NaN	32201.37068	NaN	NaN
32211.85129	13.61720915	1	80	1	2	1	6	12	2	1	3	3	NaN	32215.1344	NaN	NaN
32225.66986	13.50488584	1	81	1	2	1	6	13	1	1	3	3	NaN	32228.97447	NaN	NaN
32239.36446	13.55743702	1	82	1	2	1	6	14	1	2	3	3	NaN	32242.63696	NaN	NaN
32253.11972	13.60982004	1	83	1	2	1	6	15	2	2	3	3	NaN	32256.44544	NaN	NaN
32266.93523	13.53776192	1	84	1	2	1	6	16	2	1	3	3	NaN	32270.27913	NaN	NaN
32280.6732	13.21561874	1	85	1	2	1	6	17	1	2	3	3	NaN	32283.83829	NaN	NaN
32294.08812	13.00423355	1	86	1	2	1	6	18	1	2	3	3	NaN	32297.20414	NaN	NaN
NaN	NaN	1	87	1	2	9	6	19	3	3	NaN	NaN	NaN	NaN	NaN	NaN
32320.47305	12.95279085	1	88	1	2	9	7	1	3	3	3	3	NaN	NaN	NaN	NaN
32333.60898	13.03336353	1	89	1	2	9	7	2	3	3	3	3	NaN	NaN	NaN	NaN
32346.82633	13.09356142	1	90	1	2	9	7	3	3	3	3	3	NaN	NaN	NaN	NaN
32360.08965	13.03917979	1	91	1	2	9	7	4	3	3	3	3	NaN	NaN	NaN	NaN
32373.31362	13.00230178	1	92	1	2	9	7	5	3	3	3	3	NaN	NaN	NaN	NaN
32386.49228	12.91813474	1	93	1	2	9	7	6	3	3	3	3	NaN	NaN	NaN	NaN
32399.59367	12.99038674	1	94	1	2	9	7	7	3	3	3	3	NaN	NaN	NaN	NaN
32412.76643	12.94542538	1	95	1	2	9	7	8	3	3	3	3	NaN	NaN	NaN	NaN
32425.89936	12.97238807	1	96	1	2	9	7	9	3	3	3	3	NaN	NaN	NaN	NaN
NaN	NaN	1	97	1	2	9	7	10	3	3	NaN	NaN	NaN	NaN	NaN	NaN
32452.19659	12.91528774	1	98	1	2	5	8	1	2	2	3	3	NaN	32455.2766	NaN	NaN
32465.28689	13.12174627	1	99	1	2	5	8	2	2	2	3	3	NaN	32468.44746	NaN	NaN
32478.59613	13.45208127	1	100	1	2	5	8	3	2	1	3	3	NaN	32481.82966	NaN	NaN
32492.25115	13.4048014	1	101	1	2	5	8	4	1	2	3	3	NaN	32495.48686	NaN	NaN
32505.8538	13.50162262	1	102	1	2	5	8	5	2	1	3	3	NaN	32509.14004	NaN	NaN
32519.55951	13.59666443	1	103	1	2	5	8	6	1	1	3	3	NaN	32522.87218	NaN	NaN
32533.36616	13.60690936	1	104	1	2	5	8	7	2	1	3	3	NaN	32536.67689	NaN	NaN
32547.17631	13.56566555	1	105	1	2	5	8	8	1	1	3	3	NaN	32550.48315	NaN	NaN
32560.95162	13.66595171	1	106	1	2	5	8	9	2	2	3	3	NaN	32564.27967	NaN	NaN
32574.81437	13.69618663	1	107	1	2	5	8	10	1	2	3	3	NaN	32578.11406	NaN	NaN
32588.71963	13.65855553	1	108	1	2	5	8	11	1	1	3	3	NaN	32592.06104	NaN	NaN
32602.58527	13.67089904	1	109	1	2	5	8	12	1	1	3	3	NaN	32605.91326	NaN	NaN
32616.45199	13.62811899	1	110	1	2	5	8	13	1	2	3	3	NaN	32619.76255	NaN	NaN
32630.28379	13.67923843	1	111	1	2	5	8	14	2	1	3	3	NaN	32633.61413	NaN	NaN
32644.16504	13.53359729	1	112	1	2	5	8	15	1	1	3	3	NaN	32647.43488	NaN	NaN
32657.90548	13.46159369	1	113	1	2	5	8	16	1	2	3	3	NaN	32661.19524	NaN	NaN
32671.55399	13.36532157	1	114	1	2	5	8	17	1	1	3	3	NaN	32674.81993	NaN	NaN
32685.10835	13.12494439	1	115	1	2	5	8	18	1	1	3	3	NaN	32688.29986	NaN	NaN
NaN	NaN	1	116	1	2	9	8	19	3	3	NaN	NaN	NaN	NaN	NaN	NaN
32711.52526	12.9392819	1	117	1	2	9	9	1	3	3	3	3	NaN	NaN	NaN	NaN
32724.66187	12.93920224	1	118	1	2	9	9	2	3	3	3	3	NaN	NaN	NaN	NaN
32737.78675	12.90057261	1	119	1	2	9	9	3	3	3	3	3	NaN	NaN	NaN	NaN
32750.87057	12.91716254	1	120	1	2	9	9	4	3	3	3	3	NaN	NaN	NaN	NaN
32763.9722	12.90079318	1	121	1	2	9	9	5	3	3	3	3	NaN	NaN	NaN	NaN
32777.04774	12.99705185	1	122	1	2	9	9	6	3	3	3	3	NaN	NaN	NaN	NaN
32790.21691	13.00786414	1	123	1	2	9	9	7	3	3	3	3	NaN	NaN	NaN	NaN
32803.40876	13.0347917	1	124	1	2	9	9	8	3	3	3	3	NaN	NaN	NaN	NaN
32816.62663	13.18679097	1	125	1	2	9	9	9	3	3	3	3	NaN	NaN	NaN	NaN
NaN	NaN	1	126	1	2	9	9	10	3	3	NaN	NaN	NaN	NaN	NaN	NaN
