onset	duration	run_number	trial_number	att_task	fix_direction	bar_period	bar_direction	bar_step	fix_noise_ori	stim_noise_ori	fix_stair_val	stim_stair_val	response_val	probe_time	reaction_time	reaction_time
35136.33716	12.91581179	1	1	1	3	9	1	1	3	3	3	3	NaN	NaN	NaN	NaN
35149.4368	13.01520112	1	2	1	3	9	1	2	3	3	3	3	NaN	NaN	NaN	NaN
35162.65169	13.01390647	1	3	1	3	9	1	3	3	3	3	3	NaN	NaN	NaN	NaN
35175.84018	12.96471267	1	4	1	3	9	1	4	3	3	3	3	NaN	NaN	NaN	NaN
35188.98998	13.14557049	1	5	1	3	9	1	5	3	3	3	3	NaN	NaN	NaN	NaN
35202.33223	13.62205905	1	6	1	3	9	1	6	3	3	3	3	NaN	NaN	NaN	NaN
35216.26233	13.93030137	1	7	1	3	9	1	7	3	3	3	3	NaN	NaN	NaN	NaN
35230.39081	14.14318754	1	8	1	3	9	1	8	3	3	3	3	NaN	NaN	NaN	NaN
35244.7198	13.15704827	1	9	1	3	9	1	9	3	3	3	3	NaN	NaN	NaN	NaN
NaN	NaN	1	10	1	3	9	1	10	3	3	NaN	NaN	NaN	NaN	NaN	NaN
35271.29008	13.17082634	1	11	1	3	1	2	1	1	1	3	3	NaN	35274.48487	NaN	NaN
35284.64596	13.31421934	1	12	1	3	1	2	2	2	2	3	3	NaN	35287.82776	NaN	NaN
35298.15875	13.34126931	1	13	1	3	1	2	3	1	1	3	3	NaN	35301.41414	NaN	NaN
35311.70022	13.48012968	1	14	1	3	1	2	4	2	1	3	3	NaN	35315.01365	NaN	NaN
35325.38375	13.55187632	1	15	1	3	1	2	5	1	1	3	3	NaN	35328.68599	NaN	NaN
35339.13254	13.65195783	1	16	1	3	1	2	6	2	2	3	3	NaN	35342.49998	NaN	NaN
35352.98565	13.63144408	1	17	1	3	1	2	7	2	1	3	3	NaN	35356.30184	NaN	NaN
35366.82079	13.94696264	1	18	1	3	1	2	8	1	2	3	3	NaN	35370.16352	NaN	NaN
35380.97082	13.69726522	1	19	1	3	1	2	9	2	2	3	3	NaN	35384.33501	NaN	NaN
35394.87511	13.59661742	1	20	1	3	1	2	10	2	1	3	3	NaN	35398.13922	NaN	NaN
35408.67532	13.64569917	1	21	1	3	1	2	11	2	2	3	3	NaN	35412.00581	NaN	NaN
35422.52842	13.74481844	1	22	1	3	1	2	12	1	2	3	3	NaN	35425.84581	NaN	NaN
35436.47599	13.63220991	1	23	1	3	1	2	13	2	1	3	3	NaN	35439.82709	NaN	NaN
35450.3109	13.68078763	1	24	1	3	1	2	14	1	2	3	3	NaN	35453.63893	NaN	NaN
35464.19632	13.63014978	1	25	1	3	1	2	15	2	2	3	3	NaN	35467.50821	NaN	NaN
35478.024	13.45181557	1	26	1	3	1	2	16	1	2	3	3	NaN	35481.32213	NaN	NaN
35491.67671	13.19542073	1	27	1	3	1	2	17	1	1	3	3	NaN	35494.94384	NaN	NaN
35505.06294	13.05876448	1	28	1	3	1	2	18	2	1	3	3	NaN	35508.21369	NaN	NaN
NaN	NaN	1	29	1	3	9	2	19	3	3	NaN	NaN	NaN	NaN	NaN	NaN
35531.38206	12.84834835	1	30	1	3	9	3	1	3	3	3	3	NaN	NaN	NaN	NaN
35544.41369	12.98573965	1	31	1	3	9	3	2	3	3	3	3	NaN	NaN	NaN	NaN
35557.58113	12.93362301	1	32	1	3	9	3	3	3	3	3	3	NaN	NaN	NaN	NaN
35570.6987	12.96685657	1	33	1	3	9	3	4	3	3	3	3	NaN	NaN	NaN	NaN
35583.85121	12.94957441	1	34	1	3	9	3	5	3	3	3	3	NaN	NaN	NaN	NaN
35596.98921	13.02931051	1	35	1	3	9	3	6	3	3	3	3	NaN	NaN	NaN	NaN
35610.20521	13.01338194	1	36	1	3	9	3	7	3	3	3	3	NaN	NaN	NaN	NaN
35623.40309	12.97093413	1	37	1	3	9	3	8	3	3	3	3	NaN	NaN	NaN	NaN
35636.54908	12.97369359	1	38	1	3	9	3	9	3	3	3	3	NaN	NaN	NaN	NaN
NaN	NaN	1	39	1	3	9	3	10	3	3	NaN	NaN	NaN	NaN	NaN	NaN
35662.89025	13.06687333	1	40	1	3	5	4	1	1	1	3	3	NaN	35666.02739	NaN	NaN
35676.13863	13.23391388	1	41	1	3	5	4	2	2	2	3	3	NaN	35679.36346	NaN	NaN
35689.56516	13.64073673	1	42	1	3	5	4	3	2	2	3	3	NaN	35692.82814	NaN	NaN
35703.40629	13.48733501	1	43	1	3	5	4	4	1	1	3	3	NaN	35706.72338	NaN	NaN
35717.09562	13.66390557	1	44	1	3	5	4	5	2	1	3	3	NaN	35720.43269	NaN	NaN
35730.97094	13.82349928	1	45	1	3	5	4	6	1	2	3	3	NaN	35734.34348	NaN	NaN
35745.0003	13.64523265	1	46	1	3	5	4	7	1	1	3	3	NaN	35748.31708	NaN	NaN
35758.85233	13.72755091	1	47	1	3	5	4	8	1	2	3	3	NaN	35762.21932	NaN	NaN
35772.78368	13.68101049	1	48	1	3	5	4	9	2	2	3	3	NaN	35776.10638	NaN	NaN
35786.66467	13.79539287	1	49	1	3	5	4	10	1	2	3	3	NaN	35789.98385	NaN	NaN
35800.67291	13.69183086	1	50	1	3	5	4	11	2	1	3	3	NaN	35804.01531	NaN	NaN
35814.56818	13.72300909	1	51	1	3	5	4	12	1	2	3	3	NaN	35817.9243	NaN	NaN
35828.48131	13.69346362	1	52	1	3	5	4	13	2	1	3	3	NaN	35831.82825	NaN	NaN
35842.37201	13.76486973	1	53	1	3	5	4	14	1	2	3	3	NaN	35845.66015	NaN	NaN
35856.34324	13.67615092	1	54	1	3	5	4	15	2	1	3	3	NaN	35859.65394	NaN	NaN
35870.2184	13.78518228	1	55	1	3	5	4	16	1	2	3	3	NaN	35873.50827	NaN	NaN
35884.19588	13.37455215	1	56	1	3	5	4	17	1	2	3	3	NaN	35887.51119	NaN	NaN
35897.76334	13.15910825	1	57	1	3	5	4	18	1	1	3	3	NaN	35900.96494	NaN	NaN
NaN	NaN	1	58	1	3	9	4	19	3	3	NaN	NaN	NaN	NaN	NaN	NaN
35924.34929	12.99152149	1	59	1	3	9	5	1	3	3	3	3	NaN	NaN	NaN	NaN
35937.5221	13.01871132	1	60	1	3	9	5	2	3	3	3	3	NaN	NaN	NaN	NaN
35950.72727	12.96790391	1	61	1	3	9	5	3	3	3	3	3	NaN	NaN	NaN	NaN
35963.88197	13.01085378	1	62	1	3	9	5	4	3	3	3	3	NaN	NaN	NaN	NaN
35977.07504	12.90138129	1	63	1	3	9	5	5	3	3	3	3	NaN	NaN	NaN	NaN
35990.16175	12.91705785	1	64	1	3	9	5	6	3	3	3	3	NaN	NaN	NaN	NaN
36003.2632	12.9659282	1	65	1	3	9	5	7	3	3	3	3	NaN	NaN	NaN	NaN
36016.41464	12.949112	1	66	1	3	9	5	8	3	3	3	3	NaN	NaN	NaN	NaN
36029.54737	12.88261541	1	67	1	3	9	5	9	3	3	3	3	NaN	NaN	NaN	NaN
NaN	NaN	1	68	1	3	9	5	10	3	3	NaN	NaN	NaN	NaN	NaN	NaN
36055.73248	13.0523134	1	69	1	3	1	6	1	1	2	3	3	NaN	36058.85596	NaN	NaN
36068.96974	13.21302517	1	70	1	3	1	6	2	2	1	3	3	NaN	36072.12102	NaN	NaN
36082.37738	13.52318092	1	71	1	3	1	6	3	1	2	3	3	NaN	36085.63686	NaN	NaN
36096.10346	13.66648293	1	72	1	3	1	6	4	1	2	3	3	NaN	36099.42519	NaN	NaN
36109.97263	13.73152731	1	73	1	3	1	6	5	1	1	3	3	NaN	36113.27668	NaN	NaN
36123.90877	13.72486419	1	74	1	3	1	6	6	2	2	3	3	NaN	36127.23811	NaN	NaN
36137.84025	13.65133358	1	75	1	3	1	6	7	2	1	3	3	NaN	36141.20816	NaN	NaN
36151.69276	13.76578413	1	76	1	3	1	6	8	1	2	3	3	NaN	36155.03023	NaN	NaN
36165.66369	13.74300623	1	77	1	3	1	6	9	1	1	3	3	NaN	36169.00097	NaN	NaN
36179.61712	13.69369861	1	78	1	3	1	6	10	1	1	3	3	NaN	36182.97932	NaN	NaN
36193.52309	13.70695789	1	79	1	3	1	6	11	2	2	3	3	NaN	36196.85298	NaN	NaN
36207.49935	13.71164686	1	80	1	3	1	6	12	1	1	3	3	NaN	36210.88176	NaN	NaN
36221.42051	13.65272834	1	81	1	3	1	6	13	2	2	3	3	NaN	36224.73326	NaN	NaN
36235.28542	13.64510405	1	82	1	3	1	6	14	1	2	3	3	NaN	36238.60202	NaN	NaN
36249.1399	13.59217123	1	83	1	3	1	6	15	2	2	3	3	NaN	36252.48068	NaN	NaN
36262.93696	13.47599491	1	84	1	3	1	6	16	2	2	3	3	NaN	36266.25771	NaN	NaN
36276.61751	13.2253172	1	85	1	3	1	6	17	2	1	3	3	NaN	36279.8179	NaN	NaN
36290.03002	13.1525488	1	86	1	3	1	6	18	1	2	3	3	NaN	36293.18163	NaN	NaN
NaN	NaN	1	87	1	3	9	6	19	3	3	NaN	NaN	NaN	NaN	NaN	NaN
36316.5195	12.91362056	1	88	1	3	9	7	1	3	3	3	3	NaN	NaN	NaN	NaN
36329.61855	13.03389105	1	89	1	3	9	7	2	3	3	3	3	NaN	NaN	NaN	NaN
36342.83822	13.00923959	1	90	1	3	9	7	3	3	3	3	3	NaN	NaN	NaN	NaN
36356.02269	13.04610603	1	91	1	3	9	7	4	3	3	3	3	NaN	NaN	NaN	NaN
36369.26173	13.01254936	1	92	1	3	9	7	5	3	3	3	3	NaN	NaN	NaN	NaN
36382.45406	13.0203987	1	93	1	3	9	7	6	3	3	3	3	NaN	NaN	NaN	NaN
36395.65541	12.99103055	1	94	1	3	9	7	7	3	3	3	3	NaN	NaN	NaN	NaN
36408.82423	12.91660072	1	95	1	3	9	7	8	3	3	3	3	NaN	NaN	NaN	NaN
36421.9455	12.98907351	1	96	1	3	9	7	9	3	3	3	3	NaN	NaN	NaN	NaN
NaN	NaN	1	97	1	3	9	7	10	3	3	NaN	NaN	NaN	NaN	NaN	NaN
36448.29676	12.97076535	1	98	1	3	5	8	1	2	1	3	3	NaN	36451.42846	NaN	NaN
36461.44288	13.18452694	1	99	1	3	5	8	2	2	2	3	3	NaN	36464.59924	NaN	NaN
36474.83094	13.60236599	1	100	1	3	5	8	3	2	2	3	3	NaN	36478.07497	NaN	NaN
36488.63114	13.64848612	1	101	1	3	5	8	4	2	1	3	3	NaN	36491.93527	NaN	NaN
36502.48152	13.68886263	1	102	1	3	5	8	5	1	1	3	3	NaN	36505.78164	NaN	NaN
36516.36305	13.60182493	1	103	1	3	5	8	6	2	1	3	3	NaN	36519.6818	NaN	NaN
36530.17384	13.72442174	1	104	1	3	5	8	7	2	2	3	3	NaN	36533.49025	NaN	NaN
36544.10999	13.64164131	1	105	1	3	5	8	8	1	2	3	3	NaN	36547.39974	NaN	NaN
36557.96182	13.70518736	1	106	1	3	5	8	9	1	1	3	3	NaN	36561.29104	NaN	NaN
36571.89702	13.70485617	1	107	1	3	5	8	10	2	1	3	3	NaN	36575.23472	NaN	NaN
36585.81055	13.82415849	1	108	1	3	5	8	11	2	2	3	3	NaN	36589.13672	NaN	NaN
36599.84885	13.62367369	1	109	1	3	5	8	12	1	2	3	3	NaN	36603.1995	NaN	NaN
36613.67391	13.62385634	1	110	1	3	5	8	13	2	2	3	3	NaN	36616.97392	NaN	NaN
36627.48414	13.65642896	1	111	1	3	5	8	14	1	2	3	3	NaN	36630.74351	NaN	NaN
36641.34716	13.67630409	1	112	1	3	5	8	15	1	2	3	3	NaN	36644.67915	NaN	NaN
36655.22856	13.68440275	1	113	1	3	5	8	16	1	1	3	3	NaN	36658.52508	NaN	NaN
36669.09905	13.39361233	1	114	1	3	5	8	17	1	1	3	3	NaN	36672.3983	NaN	NaN
36682.68412	13.15495325	1	115	1	3	5	8	18	1	2	3	3	NaN	36685.82641	NaN	NaN
NaN	NaN	1	116	1	3	9	8	19	3	3	NaN	NaN	NaN	NaN	NaN	NaN
36709.08984	12.98487279	1	117	1	3	9	9	1	3	3	3	3	NaN	NaN	NaN	NaN
36722.26189	12.86212646	1	118	1	3	9	9	2	3	3	3	3	NaN	NaN	NaN	NaN
36735.31377	12.89388317	1	119	1	3	9	9	3	3	3	3	3	NaN	NaN	NaN	NaN
36748.37769	13.06849275	1	120	1	3	9	9	4	3	3	3	3	NaN	NaN	NaN	NaN
36761.62558	13.00662649	1	121	1	3	9	9	5	3	3	3	3	NaN	NaN	NaN	NaN
36774.8185	12.8310544	1	122	1	3	9	9	6	3	3	3	3	NaN	NaN	NaN	NaN
36787.83394	12.9155781	1	123	1	3	9	9	7	3	3	3	3	NaN	NaN	NaN	NaN
36800.93458	13.05110638	1	124	1	3	9	9	8	3	3	3	3	NaN	NaN	NaN	NaN
36814.1711	12.93099127	1	125	1	3	9	9	9	3	3	3	3	NaN	NaN	NaN	NaN
NaN	NaN	1	126	1	3	9	9	10	3	3	NaN	NaN	NaN	NaN	NaN	NaN
