onset	duration	run_number	trial_number	att_task	fix_direction	bar_period	bar_direction	bar_step	fix_noise_ori	stim_noise_ori	fix_stair_val	stim_stair_val	response_val	probe_time	reaction_time	reaction_time
28782.60029	13.01300694	1	1	1	4	9	1	1	3	3	3	3	NaN	NaN	NaN	NaN
28795.79757	12.96778371	1	2	1	4	9	1	2	3	3	3	3	NaN	NaN	NaN	NaN
28808.95145	13.02728373	1	3	1	4	9	1	3	3	3	3	3	NaN	NaN	NaN	NaN
28822.1756	12.93640853	1	4	1	4	9	1	4	3	3	3	3	NaN	NaN	NaN	NaN
28835.30093	13.16506566	1	5	1	4	9	1	5	3	3	3	3	NaN	NaN	NaN	NaN
28848.65309	13.04519002	1	6	1	4	9	1	6	3	3	3	3	NaN	NaN	NaN	NaN
28861.9132	12.9326764	1	7	1	4	9	1	7	3	3	3	3	NaN	NaN	NaN	NaN
28875.02458	12.9280168	1	8	1	4	9	1	8	3	3	3	3	NaN	NaN	NaN	NaN
28888.1371	12.90117871	1	9	1	4	9	1	9	3	3	3	3	NaN	NaN	NaN	NaN
NaN	NaN	1	10	1	4	9	1	10	3	3	NaN	NaN	NaN	NaN	NaN	NaN
28914.33603	13.38635081	1	11	1	4	1	2	1	1	1	3	3	NaN	28917.61233	NaN	NaN
28927.91732	13.59000219	1	12	1	4	1	2	2	2	1	3	3	NaN	28931.16781	NaN	NaN
28941.7117	13.93341229	1	13	1	4	1	2	3	2	1	3	3	NaN	28945.11502	NaN	NaN
28955.8497	13.85986015	1	14	1	4	1	2	4	2	1	3	3	NaN	28959.24772	NaN	NaN
28969.91876	13.97653422	1	15	1	4	1	2	5	1	2	3	3	NaN	28973.24991	NaN	NaN
28984.10745	13.95143256	1	16	1	4	1	2	6	2	2	3	3	NaN	28987.49131	NaN	NaN
28998.26886	13.80720511	1	17	1	4	1	2	7	1	1	3	3	NaN	29001.66266	NaN	NaN
29012.28462	14.01885822	1	18	1	4	1	2	8	2	1	3	3	NaN	29015.7371	NaN	NaN
29026.50931	13.78988407	1	19	1	4	1	2	9	1	2	3	3	NaN	29029.92379	NaN	NaN
29040.50793	13.70973557	1	20	1	4	1	2	10	2	1	3	3	NaN	29043.92226	NaN	NaN
29054.42995	13.88893769	1	21	1	4	1	2	11	2	1	3	3	NaN	29057.79288	NaN	NaN
29068.52651	13.89255499	1	22	1	4	1	2	12	2	2	3	3	NaN	29071.98345	NaN	NaN
29082.63057	13.89207514	1	23	1	4	1	2	13	1	2	3	3	NaN	29086.04244	NaN	NaN
29096.71814	13.883878	1	24	1	4	1	2	14	2	1	3	3	NaN	29100.08769	NaN	NaN
29110.81119	13.80815352	1	25	1	4	1	2	15	1	1	3	3	NaN	29114.21891	NaN	NaN
29124.84061	13.99202831	1	26	1	4	1	2	16	1	2	3	3	NaN	29128.31697	NaN	NaN
29139.03517	13.64259918	1	27	1	4	1	2	17	2	2	3	3	NaN	29142.35452	NaN	NaN
29152.88064	13.84866776	1	28	1	4	1	2	18	2	1	3	3	NaN	29156.29504	NaN	NaN
29166.93128	13.79540587	1	29	1	4	1	2	19	1	2	3	3	NaN	29170.32466	NaN	NaN
29180.93577	13.84599471	1	30	1	4	1	2	20	1	1	3	3	NaN	29184.33483	NaN	NaN
29194.97996	13.84973	1	31	1	4	1	2	21	2	1	3	3	NaN	29198.41363	NaN	NaN
29209.04397	13.85788688	1	32	1	4	1	2	22	1	2	3	3	NaN	29212.52157	NaN	NaN
29223.10224	13.8468143	1	33	1	4	1	2	23	1	1	3	3	NaN	29226.55837	NaN	NaN
29237.15589	13.71122731	1	34	1	4	1	2	24	1	2	3	3	NaN	29240.5486	NaN	NaN
29251.06403	13.89519507	1	35	1	4	1	2	25	2	2	3	3	NaN	29254.51613	NaN	NaN
29265.17417	13.60904803	1	36	1	4	1	2	26	2	2	3	3	NaN	29268.55373	NaN	NaN
29278.98598	13.864187	1	37	1	4	1	2	27	2	1	3	3	NaN	29282.4362	NaN	NaN
29293.05756	13.68320575	1	38	1	4	1	2	28	1	2	3	3	NaN	29296.4205	NaN	NaN
29306.94241	13.77139655	1	39	1	4	1	2	29	1	2	3	3	NaN	29310.36685	NaN	NaN
29320.93573	13.80399171	1	40	1	4	1	2	30	2	1	3	3	NaN	29324.29752	NaN	NaN
29334.94254	13.7782445	1	41	1	4	1	2	31	1	2	3	3	NaN	29338.3848	NaN	NaN
29348.92409	13.46303698	1	42	1	4	1	2	32	2	2	3	3	NaN	29352.22614	NaN	NaN
NaN	NaN	1	43	1	4	9	2	33	3	3	NaN	NaN	NaN	NaN	NaN	NaN
29375.73244	13.00626131	1	44	1	4	9	3	1	3	3	3	3	NaN	NaN	NaN	NaN
29388.92607	13.0894627	1	45	1	4	9	3	2	3	3	3	3	NaN	NaN	NaN	NaN
29402.18754	12.98769214	1	46	1	4	9	3	3	3	3	3	3	NaN	NaN	NaN	NaN
29415.35254	13.13129027	1	47	1	4	9	3	4	3	3	3	3	NaN	NaN	NaN	NaN
29428.65971	12.98218713	1	48	1	4	9	3	5	3	3	3	3	NaN	NaN	NaN	NaN
29441.82583	13.00086099	1	49	1	4	9	3	6	3	3	3	3	NaN	NaN	NaN	NaN
29455.01184	13.04557167	1	50	1	4	9	3	7	3	3	3	3	NaN	NaN	NaN	NaN
29468.24368	13.06945895	1	51	1	4	9	3	8	3	3	3	3	NaN	NaN	NaN	NaN
29481.50227	13.03608552	1	52	1	4	9	3	9	3	3	3	3	NaN	NaN	NaN	NaN
NaN	NaN	1	53	1	4	9	3	10	3	3	NaN	NaN	NaN	NaN	NaN	NaN
29507.98637	14.28055422	1	54	1	4	3	4	1	2	1	3	3	NaN	29511.53971	NaN	NaN
29522.48132	14.83592769	1	55	1	4	3	4	2	2	2	3	3	NaN	29526.08951	NaN	NaN
29537.56041	15.27104021	1	56	1	4	3	4	3	2	1	3	3	NaN	29541.36329	NaN	NaN
29553.08529	15.37874375	1	57	1	4	3	4	4	2	1	3	3	NaN	29556.98506	NaN	NaN
29568.72062	15.31757045	1	58	1	4	3	4	5	1	2	3	3	NaN	29572.60368	NaN	NaN
29584.29178	15.26306606	1	59	1	4	3	4	6	2	1	3	3	NaN	29588.18281	NaN	NaN
29599.81199	15.24260577	1	60	1	4	3	4	7	1	2	3	3	NaN	29603.72846	NaN	NaN
29615.31074	15.40533404	1	61	1	4	3	4	8	1	1	3	3	NaN	29619.2526	NaN	NaN
29630.95479	15.47028172	1	62	1	4	3	4	9	1	1	3	3	NaN	29634.83672	NaN	NaN
29646.67142	15.32232694	1	63	1	4	3	4	10	2	2	3	3	NaN	29650.57134	NaN	NaN
29662.23905	15.40391604	1	64	1	4	3	4	11	2	2	3	3	NaN	29666.15778	NaN	NaN
29677.89295	15.25433466	1	65	1	4	3	4	12	2	2	3	3	NaN	29681.74296	NaN	NaN
29693.40065	15.40581024	1	66	1	4	3	4	13	1	2	3	3	NaN	29697.32883	NaN	NaN
29709.06072	15.4061142	1	67	1	4	3	4	14	1	1	3	3	NaN	29712.92759	NaN	NaN
29724.72101	15.37538238	1	68	1	4	3	4	15	1	2	3	3	NaN	29728.72725	NaN	NaN
29740.35357	15.37861456	1	69	1	4	3	4	16	1	1	3	3	NaN	29744.27857	NaN	NaN
29755.98629	15.24934641	1	70	1	4	3	4	17	2	1	3	3	NaN	29759.88491	NaN	NaN
29771.4786	14.23854524	1	71	1	4	3	4	18	2	2	3	3	NaN	29775.15074	NaN	NaN
NaN	NaN	1	72	1	4	9	4	19	3	3	NaN	NaN	NaN	NaN	NaN	NaN
29799.16577	13.00284347	1	73	1	4	9	5	1	3	3	3	3	NaN	NaN	NaN	NaN
29812.35319	12.94528507	1	74	1	4	9	5	2	3	3	3	3	NaN	NaN	NaN	NaN
29825.48904	12.91853958	1	75	1	4	9	5	3	3	3	3	3	NaN	NaN	NaN	NaN
29838.58813	12.98571153	1	76	1	4	9	5	4	3	3	3	3	NaN	NaN	NaN	NaN
29851.79814	13.02696546	1	77	1	4	9	5	5	3	3	3	3	NaN	NaN	NaN	NaN
29865.00193	13.11690299	1	78	1	4	9	5	6	3	3	3	3	NaN	NaN	NaN	NaN
29878.30651	13.17037932	1	79	1	4	9	5	7	3	3	3	3	NaN	NaN	NaN	NaN
29891.65712	13.0038284	1	80	1	4	9	5	8	3	3	3	3	NaN	NaN	NaN	NaN
29904.84374	13.10223558	1	81	1	4	9	5	9	3	3	3	3	NaN	NaN	NaN	NaN
NaN	NaN	1	82	1	4	9	5	10	3	3	NaN	NaN	NaN	NaN	NaN	NaN
29931.39117	13.23164808	1	83	1	4	5	6	1	2	2	3	3	NaN	29934.59961	NaN	NaN
29944.81597	13.41535747	1	84	1	4	5	6	2	2	2	3	3	NaN	29948.069	NaN	NaN
29958.44021	13.74070639	1	85	1	4	5	6	3	1	2	3	3	NaN	29961.85622	NaN	NaN
29972.3919	13.82264901	1	86	1	4	5	6	4	2	1	3	3	NaN	29975.80139	NaN	NaN
29986.42413	13.80357073	1	87	1	4	5	6	5	2	1	3	3	NaN	29989.84668	NaN	NaN
30000.43835	13.70887087	1	88	1	4	5	6	6	1	2	3	3	NaN	30003.80016	NaN	NaN
30014.35723	13.66991745	1	89	1	4	5	6	7	1	1	3	3	NaN	30017.70156	NaN	NaN
30028.22525	13.7189521	1	90	1	4	5	6	8	2	1	3	3	NaN	30031.59283	NaN	NaN
30042.13838	13.68426321	1	91	1	4	5	6	9	2	1	3	3	NaN	30045.48798	NaN	NaN
30056.0216	13.78935119	1	92	1	4	5	6	10	1	1	3	3	NaN	30059.40478	NaN	NaN
30070.00945	13.77857186	1	93	1	4	5	6	11	1	2	3	3	NaN	30073.36787	NaN	NaN
30083.99954	13.73678546	1	94	1	4	5	6	12	2	2	3	3	NaN	30087.3709	NaN	NaN
30097.95463	13.80040318	1	95	1	4	5	6	13	2	2	3	3	NaN	30101.34623	NaN	NaN
30111.96334	13.74736373	1	96	1	4	5	6	14	1	2	3	3	NaN	30115.27149	NaN	NaN
30125.91346	13.82712755	1	97	1	4	5	6	15	2	2	3	3	NaN	30129.28036	NaN	NaN
30139.95158	13.88956765	1	98	1	4	5	6	16	1	2	3	3	NaN	30143.38342	NaN	NaN
30154.04758	13.76308019	1	99	1	4	5	6	17	1	1	3	3	NaN	30157.4136	NaN	NaN
30168.02191	13.90353247	1	100	1	4	5	6	18	1	2	3	3	NaN	30171.40433	NaN	NaN
30182.14661	13.85728709	1	101	1	4	5	6	19	1	1	3	3	NaN	30185.5959	NaN	NaN
30196.20064	13.87932919	1	102	1	4	5	6	20	1	2	3	3	NaN	30199.62887	NaN	NaN
30210.28876	13.84252119	1	103	1	4	5	6	21	2	2	3	3	NaN	30213.65825	NaN	NaN
30224.33998	13.99229804	1	104	1	4	5	6	22	1	2	3	3	NaN	30227.72084	NaN	NaN
30238.53991	13.95938747	1	105	1	4	5	6	23	2	1	3	3	NaN	30242.01821	NaN	NaN
30252.7099	13.8570121	1	106	1	4	5	6	24	2	1	3	3	NaN	30256.05714	NaN	NaN
30266.77325	14.04753019	1	107	1	4	5	6	25	2	2	3	3	NaN	30270.15558	NaN	NaN
30281.03003	13.92304681	1	108	1	4	5	6	26	1	1	3	3	NaN	30284.39168	NaN	NaN
30295.17307	13.94784604	1	109	1	4	5	6	27	1	1	3	3	NaN	30298.59947	NaN	NaN
30309.32305	13.83110255	1	110	1	4	5	6	28	1	1	3	3	NaN	30312.71922	NaN	NaN
30323.36713	14.06368343	1	111	1	4	5	6	29	1	2	3	3	NaN	30326.67147	NaN	NaN
30337.63543	13.97328556	1	112	1	4	5	6	30	2	2	3	3	NaN	30341.08773	NaN	NaN
30351.82046	13.8693903	1	113	1	4	5	6	31	2	1	3	3	NaN	30355.15733	NaN	NaN
30365.89711	13.59687245	1	114	1	4	5	6	32	2	2	3	3	NaN	30369.21765	NaN	NaN
NaN	NaN	1	115	1	4	9	6	33	3	3	NaN	NaN	NaN	NaN	NaN	NaN
30392.94726	12.94463451	1	116	1	4	9	7	1	3	3	3	3	NaN	NaN	NaN	NaN
30406.07637	12.95384027	1	117	1	4	9	7	2	3	3	3	3	NaN	NaN	NaN	NaN
30419.21098	12.98670532	1	118	1	4	9	7	3	3	3	3	3	NaN	NaN	NaN	NaN
30432.37758	13.00193554	1	119	1	4	9	7	4	3	3	3	3	NaN	NaN	NaN	NaN
30445.56273	12.98562998	1	120	1	4	9	7	5	3	3	3	3	NaN	NaN	NaN	NaN
30458.72999	13.01601838	1	121	1	4	9	7	6	3	3	3	3	NaN	NaN	NaN	NaN
30471.93157	13.0003561	1	122	1	4	9	7	7	3	3	3	3	NaN	NaN	NaN	NaN
30485.11465	13.00183852	1	123	1	4	9	7	8	3	3	3	3	NaN	NaN	NaN	NaN
30498.29665	12.94732634	1	124	1	4	9	7	9	3	3	3	3	NaN	NaN	NaN	NaN
NaN	NaN	1	125	1	4	9	7	10	3	3	NaN	NaN	NaN	NaN	NaN	NaN
30524.68721	14.16641875	1	126	1	4	7	8	1	2	1	3	3	NaN	30528.15693	NaN	NaN
30539.06875	15.05495035	1	127	1	4	7	8	2	2	2	3	3	NaN	30542.80336	NaN	NaN
30554.37102	15.18380241	1	128	1	4	7	8	3	1	2	3	3	NaN	30558.21792	NaN	NaN
30569.81165	15.26376094	1	129	1	4	7	8	4	1	2	3	3	NaN	30573.66122	NaN	NaN
30585.32711	15.29558248	1	130	1	4	7	8	5	2	1	3	3	NaN	30589.2095	NaN	NaN
30600.87061	15.32536645	1	131	1	4	7	8	6	1	1	3	3	NaN	30604.79887	NaN	NaN
30616.43929	15.33641224	1	132	1	4	7	8	7	2	2	3	3	NaN	30620.3297	NaN	NaN
30632.06234	15.33085802	1	133	1	4	7	8	8	1	2	3	3	NaN	30635.94692	NaN	NaN
30647.65012	15.24458105	1	134	1	4	7	8	9	1	1	3	3	NaN	30651.5487	NaN	NaN
30663.15091	15.37550214	1	135	1	4	7	8	10	2	1	3	3	NaN	30667.04534	NaN	NaN
30678.78327	15.39813106	1	136	1	4	7	8	11	2	2	3	3	NaN	30682.69941	NaN	NaN
30694.43922	15.32780105	1	137	1	4	7	8	12	1	2	3	3	NaN	30698.32048	NaN	NaN
30710.02081	15.44648928	1	138	1	4	7	8	13	1	1	3	3	NaN	30713.92098	NaN	NaN
30725.71712	15.33113727	1	139	1	4	7	8	14	1	2	3	3	NaN	30729.63734	NaN	NaN
30741.30481	15.39666705	1	140	1	4	7	8	15	2	1	3	3	NaN	30745.19087	NaN	NaN
30756.95515	15.31839365	1	141	1	4	7	8	16	1	2	3	3	NaN	30760.85405	NaN	NaN
30772.51793	15.16907375	1	142	1	4	7	8	17	2	1	3	3	NaN	30776.35421	NaN	NaN
30787.9394	14.34536114	1	143	1	4	7	8	18	1	1	3	3	NaN	30791.56263	NaN	NaN
NaN	NaN	1	144	1	4	9	8	19	3	3	NaN	NaN	NaN	NaN	NaN	NaN
30815.73807	13.04909858	1	145	1	4	9	9	1	3	3	3	3	NaN	NaN	NaN	NaN
30828.97178	12.97430016	1	146	1	4	9	9	2	3	3	3	3	NaN	NaN	NaN	NaN
30842.12083	12.93399331	1	147	1	4	9	9	3	3	3	3	3	NaN	NaN	NaN	NaN
30855.24457	12.9854937	1	148	1	4	9	9	4	3	3	3	3	NaN	NaN	NaN	NaN
30868.404	12.98814728	1	149	1	4	9	9	5	3	3	3	3	NaN	NaN	NaN	NaN
30881.57856	13.11710507	1	150	1	4	9	9	6	3	3	3	3	NaN	NaN	NaN	NaN
30894.88021	13.05898801	1	151	1	4	9	9	7	3	3	3	3	NaN	NaN	NaN	NaN
30908.12802	13.0530273	1	152	1	4	9	9	8	3	3	3	3	NaN	NaN	NaN	NaN
30921.35972	13.04085796	1	153	1	4	9	9	9	3	3	3	3	NaN	NaN	NaN	NaN
NaN	NaN	1	154	1	4	9	9	10	3	3	NaN	NaN	NaN	NaN	NaN	NaN
