onset	duration	run_number	trial_number	att_task	fix_direction	bar_period	bar_direction	bar_step	fix_noise_ori	stim_noise_ori	fix_stair_val	stim_stair_val	response_val	probe_time	reaction_time
1545307560	1.191411972	3	1	1	4	9	1	1	3	3	4	6	n/a	n/a	n/a
1545307562	1.191677809	3	2	1	4	9	1	2	3	3	4	6	n/a	n/a	n/a
1545307563	1.19175601	3	3	1	4	9	1	3	3	3	4	6	n/a	n/a	n/a
1545307564	1.191723108	3	4	1	4	9	1	4	3	3	4	6	n/a	n/a	n/a
1545307565	1.191725016	3	5	1	4	9	1	5	3	3	4	6	n/a	n/a	n/a
1545307566	1.191678047	3	6	1	4	9	1	6	3	3	4	6	n/a	n/a	n/a
1545307568	1.191794157	3	7	1	4	9	1	7	3	3	4	6	n/a	n/a	n/a
1545307569	1.191625834	3	8	1	4	9	1	8	3	3	4	6	n/a	n/a	n/a
1545307570	1.191741943	3	9	1	4	9	1	9	3	3	4	6	n/a	n/a	n/a
1545307571	1.191735983	3	10	1	4	9	1	10	3	3	4	6	n/a	n/a	n/a
1545307573	1.213322878	3	11	1	4	1	2	1	1	2	4	6	n/a	1545307573	n/a
1545307574	1.200091124	3	12	1	4	1	2	2	2	1	5	6	0	1545307574	0.6753909588
1545307575	1.200052023	3	13	1	4	1	2	3	2	2	5	6	1	1545307575	0.6752331257
1545307576	1.200063944	3	14	1	4	1	2	4	2	2	6	6	0	1545307577	0.6252160072
1545307577	1.200026989	3	15	1	4	1	2	5	1	2	6	6	1	1545307578	0.7163109779
1545307579	1.200026989	3	16	1	4	1	2	6	2	2	6	6	1	1545307579	0.7586321831
1545307580	1.199961901	3	17	1	4	1	2	7	1	1	5	6	1	1545307580	0.6503648758
1545307581	1.200031042	3	18	1	4	1	2	8	2	1	5	6	1	1545307581	0.6335818768
1545307582	1.191709042	3	19	1	4	1	2	9	2	1	5	6	1	1545307583	0.6252260208
1545307584	1.200073957	3	20	1	4	1	2	10	1	2	4	6	1	1545307584	0.6928639412
1545307585	1.200028896	3	21	1	4	1	2	11	2	1	4	6	1	1545307585	0.8428461552
1545307586	1.200078964	3	22	1	4	1	2	12	1	2	4	6	1	1545307586	0.6252000332
1545307587	1.200059175	3	23	1	4	1	2	13	2	2	3	6	1	1545307587	0.6838030815
1545307588	1.200026989	3	24	1	4	1	2	14	2	1	4	6	0	1545307589	0.6920681
1545307590	1.200009823	3	25	1	4	1	2	15	2	1	4	6	1	1545307590	0.7251479626
1545307591	1.200070143	3	26	1	4	1	2	16	2	2	4	6	1	1545307591	0.7833731174
1545307592	1.200011969	3	27	1	4	1	2	17	1	1	4	6	1	1545307592	0.8920769691
1545307593	1.200001001	3	28	1	4	1	2	18	1	1	4	6	0	1545307593	0.7836670876
1545307594	1.191653013	3	29	1	4	1	2	19	2	1	4	6	1	1545307595	0.8751580715
1545307596	1.200067997	3	30	1	4	1	2	20	1	2	4	6	1	1545307596	0.8586301804
1545307597	1.191681862	3	31	1	4	1	2	21	2	1	3	6	1	1545307597	0.7917699814
1545307598	1.191772938	3	32	1	4	1	2	22	2	2	3	6	n/a	1545307598	n/a
1545307599	1.200069189	3	33	1	4	1	2	23	2	2	3	6	1	1545307600	0.7668509483
1545307600	1.200043917	3	34	1	4	1	2	24	1	2	3	6	1	1545307601	0.7002410889
1545307602	1.200133085	3	35	1	4	1	2	25	1	2	3	6	n/a	1545307602	n/a
1545307603	1.200070143	3	36	1	4	1	2	26	2	2	4	6	0	1545307603	0.6751878262
1545307604	1.200075865	3	37	1	4	1	2	27	2	2	5	6	0	1545307604	0.7919380665
1545307605	1.200056076	3	38	1	4	1	2	28	1	1	5	6	1	1545307606	0.7333209515
1545307606	1.200047016	3	39	1	4	1	2	29	2	1	5	6	1	1545307607	0.6418409348
1545307608	1.200059175	3	40	1	4	1	2	30	1	1	4	6	1	1545307608	0.8084411621
1545307609	1.200125217	3	41	1	4	1	2	31	2	2	4	6	1	1545307609	0.8501110077
1545307610	1.191524029	3	42	1	4	1	2	32	1	1	4	6	1	1545307610	0.8750989437
1545307611	1.198665142	3	43	1	4	9	3	1	3	3	4	6	n/a	n/a	n/a
1545307613	1.191468	3	44	1	4	9	3	2	3	3	4	6	n/a	n/a	n/a
1545307614	1.191724062	3	45	1	4	9	3	3	3	3	4	6	n/a	n/a	n/a
1545307615	1.191739082	3	46	1	4	9	3	4	3	3	4	6	n/a	n/a	n/a
1545307616	1.191668987	3	47	1	4	9	3	5	3	3	4	6	n/a	n/a	n/a
1545307617	1.19166398	3	48	1	4	9	3	6	3	3	4	6	n/a	n/a	n/a
1545307619	1.19177103	3	49	1	4	9	3	7	3	3	4	6	n/a	n/a	n/a
1545307620	1.19166398	3	50	1	4	9	3	8	3	3	4	6	n/a	n/a	n/a
1545307621	1.191834927	3	51	1	4	9	3	9	3	3	4	6	n/a	n/a	n/a
1545307622	1.191680908	3	52	1	4	9	3	10	3	3	4	6	n/a	n/a	n/a
1545307624	1.216011047	3	53	1	4	3	4	1	2	2	3	6	1	1545307624	0.7753431797
1545307625	1.191681862	3	54	1	4	3	4	2	1	1	3	6	0	1545307625	0.8751089573
1545307626	1.200141907	3	55	1	4	3	4	3	2	1	4	6	1	1545307626	0.8251318932
1545307627	1.199970007	3	56	1	4	3	4	4	2	2	4	6	n/a	1545307627	n/a
1545307628	1.200063944	3	57	1	4	3	4	5	2	2	4	6	n/a	1545307629	n/a
1545307630	1.200039148	3	58	1	4	3	4	6	1	1	4	6	1	1545307630	0.733453989
1545307631	1.199944973	3	59	1	4	3	4	7	1	1	5	6	0	1545307631	0.6084468365
1545307632	1.200015068	3	60	1	4	3	4	8	1	2	5	6	1	1545307632	0.7585041523
1545307633	1.200060129	3	61	1	4	3	4	9	2	2	5	6	1	1545307634	0.5584001541
1545307634	1.200088978	3	62	1	4	3	4	10	1	2	5	6	n/a	1545307635	n/a
1545307636	1.200045824	3	63	1	4	3	4	11	2	2	4	6	1	1545307636	0.6833620071
1545307637	1.191732883	3	64	1	4	3	4	12	2	2	4	6	1	1545307637	0.6000909805
1545307638	1.200009108	3	65	1	4	3	4	13	1	2	4	6	0	1545307638	0.8751280308
1545307639	1.200027943	3	66	1	4	3	4	14	2	2	5	6	1	1545307640	0.71676898
1545307640	1.200073957	3	67	1	4	3	4	15	1	2	5	6	1	1545307641	0.8418180943
1545307642	1.200026989	3	68	1	4	3	4	16	1	2	4	6	1	1545307642	0.7335190773
1545307643	1.191745996	3	69	1	4	3	4	17	2	2	5	6	0	1545307643	0.7750940323
1545307644	1.200031996	3	70	1	4	3	4	18	2	2	5	6	1	1545307644	0.6417589188
1545307645	1.199939013	3	71	1	4	9	5	1	3	3	5	6	n/a	n/a	n/a
1545307647	1.191776991	3	72	1	4	9	5	2	3	3	5	6	n/a	n/a	n/a
1545307648	1.191776037	3	73	1	4	9	5	3	3	3	5	6	n/a	n/a	n/a
1545307649	1.191734791	3	74	1	4	9	5	4	3	3	5	6	n/a	n/a	n/a
1545307650	1.200045109	3	75	1	4	9	5	5	3	3	5	6	n/a	n/a	n/a
1545307651	1.191721916	3	76	1	4	9	5	6	3	3	5	6	n/a	n/a	n/a
1545307653	1.191691875	3	77	1	4	9	5	7	3	3	5	6	n/a	n/a	n/a
1545307654	1.191725016	3	78	1	4	9	5	8	3	3	5	6	n/a	n/a	n/a
1545307655	1.191697836	3	79	1	4	9	5	9	3	3	5	6	n/a	n/a	n/a
1545307656	1.191785812	3	80	1	4	9	5	10	3	3	5	6	n/a	n/a	n/a
1545307658	1.207615852	3	81	1	4	5	6	1	1	1	6	6	0	1545307658	0.383671999
1545307659	1.191679955	3	82	1	4	5	6	2	2	2	6	6	1	1545307659	0.3000919819
1545307660	1.200098038	3	83	1	4	5	6	3	1	1	7	6	0	1545307660	0.192168951
1545307661	1.191705942	3	84	1	4	5	6	4	1	1	8	6	0	1545307662	0.2417998314
1545307662	1.200038195	3	85	1	4	5	6	5	1	1	9	6	0	1545307663	0.1751189232
1545307664	1.200047016	3	86	1	4	5	6	6	2	1	9	6	1	1545307664	0.1750910282
1545307665	1.200178862	3	87	1	4	5	6	7	1	2	10	6	0	1545307665	0.216755867
1545307666	1.199987888	3	88	1	4	5	6	8	1	2	10	6	1	1545307666	0.1500139236
1545307667	1.200052023	3	89	1	4	5	6	9	1	1	10	6	1	1545307668	0.141710043
1545307668	1.200037003	3	90	1	4	5	6	10	2	1	9	6	1	1545307669	0.6334269047
1545307670	1.19995904	3	91	1	4	5	6	11	1	1	9	6	1	1545307670	0.7001578808
1545307671	1.200024843	3	92	1	4	5	6	12	2	2	9	6	1	1545307671	0.5834920406
1545307672	1.200031042	3	93	1	4	5	6	13	1	2	8	6	1	1545307672	0.5667989254
1545307673	1.199980974	3	94	1	4	5	6	14	1	1	8	6	1	1545307674	0.6667439938
1545307675	1.200051069	3	95	1	4	5	6	15	1	1	9	6	0	1545307675	0.7584378719
1545307676	1.199975014	3	96	1	4	5	6	16	1	1	9	6	1	1545307676	0.716894865
1545307677	1.191700935	3	97	1	4	5	6	17	2	2	9	6	1	1545307677	0.6250059605
1545307678	1.200055122	3	98	1	4	5	6	18	1	2	8	6	1	1545307678	0.6250982285
1545307679	1.200016975	3	99	1	4	5	6	19	2	1	8	6	1	1545307680	0.750068903
1545307681	1.200011969	3	100	1	4	5	6	20	2	2	8	6	1	1545307681	0.8499929905
1545307682	1.200075865	3	101	1	4	5	6	21	1	1	7	6	1	1545307682	0.7500901222
1545307683	1.200017929	3	102	1	4	5	6	22	2	1	7	6	1	1545307683	0.791768074
1545307684	1.200064898	3	103	1	4	5	6	23	1	1	7	6	1	1545307684	0.8418200016
1545307685	1.200016975	3	104	1	4	5	6	24	1	2	6	6	1	1545307686	0.6917719841
1545307687	1.200191975	3	105	1	4	5	6	25	1	2	6	6	1	1545307687	0.708466053
1545307688	1.191711187	3	106	1	4	5	6	26	1	1	6	6	1	1545307688	0.9001719952
1545307689	1.200159073	3	107	1	4	5	6	27	2	2	5	6	1	1545307689	0.7667748928
1545307690	1.200052023	3	108	1	4	5	6	28	1	1	5	6	1	1545307691	0.8168170452
1545307691	1.199953079	3	109	1	4	5	6	29	2	1	5	6	1	1545307692	0.7668027878
1545307693	1.191649914	3	110	1	4	5	6	30	2	1	4	6	1	1545307693	0.7333879471
1545307694	1.191555977	3	111	1	4	5	6	31	2	1	4	6	1	1545307694	0.8251121044
1545307695	1.19178009	3	112	1	4	5	6	32	2	1	4	6	n/a	1545307695	n/a
1545307696	1.199684143	3	113	1	4	9	7	1	3	3	4	6	n/a	n/a	n/a
1545307698	1.191704035	3	114	1	4	9	7	2	3	3	4	6	n/a	n/a	n/a
1545307699	1.191789865	3	115	1	4	9	7	3	3	3	4	6	n/a	n/a	n/a
1545307700	1.191766024	3	116	1	4	9	7	4	3	3	4	6	n/a	n/a	n/a
1545307701	1.191758871	3	117	1	4	9	7	5	3	3	4	6	n/a	n/a	n/a
1545307702	1.19173193	3	118	1	4	9	7	6	3	3	4	6	n/a	n/a	n/a
1545307704	1.191709042	3	119	1	4	9	7	7	3	3	4	6	n/a	n/a	n/a
1545307705	1.191710949	3	120	1	4	9	7	8	3	3	4	6	n/a	n/a	n/a
1545307706	1.191726923	3	121	1	4	9	7	9	3	3	4	6	n/a	n/a	n/a
1545307707	1.191706896	3	122	1	4	9	7	10	3	3	4	6	n/a	n/a	n/a
1545307709	1.20815587	3	123	1	4	7	8	1	1	2	4	6	1	1545307709	0.5755548477
1545307710	1.208461046	3	124	1	4	7	8	2	2	1	5	6	0	1545307710	0.3834660053
1545307711	1.199995995	3	125	1	4	7	8	3	2	1	6	6	0	1545307711	0.1584589481
1545307712	1.200055122	3	126	1	4	7	8	4	1	1	6	6	1	1545307712	0.2750430107
1545307713	1.200031042	3	127	1	4	7	8	5	1	2	7	6	0	1545307714	0.2001011372
1545307715	1.19173789	3	128	1	4	7	8	6	1	2	8	6	0	1545307715	0.1833901405
1545307716	1.208283186	3	129	1	4	7	8	7	2	1	8	6	1	1545307716	0.200097084
1545307717	1.208348036	3	130	1	4	7	8	8	2	1	8	6	1	1545307717	0.1084787846
1545307718	1.200100899	3	131	1	4	7	8	9	1	1	7	6	1	1545307719	0.2000379562
1545307719	1.200062037	3	132	1	4	7	8	10	2	1	8	6	0	1545307720	0.2334120274
1545307721	1.200033903	3	133	1	4	7	8	11	1	1	8	6	n/a	1545307721	n/a
1545307722	1.200029135	3	134	1	4	7	8	12	1	2	8	6	1	1545307722	0.7334909439
1545307723	1.200111151	3	135	1	4	7	8	13	1	1	8	6	1	1545307723	0.7667319775
1545307724	1.200101137	3	136	1	4	7	8	14	2	2	7	6	1	1545307725	0.6751170158
1545307725	1.20006609	3	137	1	4	7	8	15	2	1	7	6	1	1545307726	0.6501410007
1545307727	1.200071812	3	138	1	4	7	8	16	1	2	8	6	0	1545307727	0.6750850677
1545307728	1.20002079	3	139	1	4	7	8	17	2	1	8	6	1	1545307728	0.6417198181
1545307729	1.200095177	3	140	1	4	7	8	18	1	2	9	6	0	1545307729	0.5501520634
1545307730	1.199758053	3	141	1	4	9	9	1	3	3	9	6	n/a	n/a	n/a
1545307732	1.191711903	3	142	1	4	9	9	2	3	3	9	6	n/a	n/a	n/a
1545307733	1.191735983	3	143	1	4	9	9	3	3	3	9	6	n/a	n/a	n/a
1545307734	1.191681147	3	144	1	4	9	9	4	3	3	9	6	n/a	n/a	n/a
1545307735	1.191727877	3	145	1	4	9	9	5	3	3	9	6	n/a	n/a	n/a
1545307736	1.191706896	3	146	1	4	9	9	6	3	3	9	6	n/a	n/a	n/a
1545307738	1.191669941	3	147	1	4	9	9	7	3	3	9	6	n/a	n/a	n/a
1545307739	1.191649914	3	148	1	4	9	9	8	3	3	9	6	n/a	n/a	n/a
1545307740	1.191757917	3	149	1	4	9	9	9	3	3	9	6	n/a	n/a	n/a
1545307741	1.191771984	3	150	1	4	9	9	10	3	3	9	6	n/a	n/a	n/a
