onset	duration	run_number	trial_number	att_task	fix_direction	bar_period	bar_direction	bar_step	fix_noise_ori	stim_noise_ori	fix_stair_val	stim_stair_val	response_val	probe_time	reaction_time
1545312269	1.191492081	18	1	2	2	9	1	1	3	3	8	8	n/a	n/a	n/a
1545312271	1.19167614	18	2	2	2	9	1	2	3	3	8	8	n/a	n/a	n/a
1545312272	1.191853046	18	3	2	2	9	1	3	3	3	8	8	n/a	n/a	n/a
1545312273	1.191868067	18	4	2	2	9	1	4	3	3	8	8	n/a	n/a	n/a
1545312274	1.191861868	18	5	2	2	9	1	5	3	3	8	8	n/a	n/a	n/a
1545312275	1.191776991	18	6	2	2	9	1	6	3	3	8	8	n/a	n/a	n/a
1545312277	1.191859961	18	7	2	2	9	1	7	3	3	8	8	n/a	n/a	n/a
1545312278	1.191685915	18	8	2	2	9	1	8	3	3	8	8	n/a	n/a	n/a
1545312279	1.191715002	18	9	2	2	9	1	9	3	3	8	8	n/a	n/a	n/a
1545312280	1.191770077	18	10	2	2	9	1	10	3	3	8	8	n/a	n/a	n/a
1545312282	1.196636915	18	11	2	2	1	2	1	2	1	8	8	n/a	1545312282	n/a
1545312283	1.191709042	18	12	2	2	1	2	2	1	1	8	8	n/a	1545312283	n/a
1545312284	1.191723108	18	13	2	2	1	2	3	1	2	8	8	1	1545312284	0.5919060707
1545312285	1.191686869	18	14	2	2	1	2	4	1	2	8	7	1	1545312285	0.5251719952
1545312286	1.19179821	18	15	2	2	1	2	5	1	1	8	7	1	1545312287	0.7411670685
1545312288	1.191775084	18	16	2	2	1	2	6	1	1	8	7	1	1545312288	0.8668210506
1545312289	1.200098991	18	17	2	2	1	2	7	2	2	8	6	1	1545312289	0.7337172031
1545312290	1.200119019	18	18	2	2	1	2	8	1	1	8	7	0	1545312290	0.8002529144
1545312291	1.200069904	18	19	2	2	1	2	9	2	2	8	7	1	1545312292	0.8013689518
1545312292	1.191706181	18	20	2	2	1	2	10	1	1	8	7	1	1545312293	0.858618021
1545312294	1.191747904	18	21	2	2	1	2	11	2	1	8	7	n/a	1545312294	n/a
1545312295	1.191756964	18	22	2	2	1	2	12	2	2	8	6	1	1545312295	0.7503190041
1545312296	1.200129986	18	23	2	2	1	2	13	1	1	8	7	0	1545312296	0.8169839382
1545312297	1.191755056	18	24	2	2	1	2	14	2	1	8	8	0	1545312298	0.8336541653
1545312298	1.191727877	18	25	2	2	1	2	15	2	2	8	8	1	1545312299	0.7004430294
1545312300	1.191762924	18	26	2	2	1	2	16	1	2	8	8	1	1545312300	0.5585150719
1545312301	1.200095892	18	27	2	2	1	2	17	2	1	8	9	0	1545312301	0.7334680557
1545312302	1.191748142	18	28	2	2	1	2	18	1	1	8	10	0	1545312302	0.5837180614
1545312303	1.198720932	18	29	2	2	9	3	1	3	3	8	10	n/a	n/a	n/a
1545312305	1.191483021	18	30	2	2	9	3	2	3	3	8	10	n/a	n/a	n/a
1545312306	1.191758871	18	31	2	2	9	3	3	3	3	8	10	n/a	n/a	n/a
1545312307	1.191756964	18	32	2	2	9	3	4	3	3	8	10	n/a	n/a	n/a
1545312308	1.191735983	18	33	2	2	9	3	5	3	3	8	10	n/a	n/a	n/a
1545312309	1.191709995	18	34	2	2	9	3	6	3	3	8	10	n/a	n/a	n/a
1545312311	1.19166708	18	35	2	2	9	3	7	3	3	8	10	n/a	n/a	n/a
1545312312	1.191680908	18	36	2	2	9	3	8	3	3	8	10	n/a	n/a	n/a
1545312313	1.19184494	18	37	2	2	9	3	9	3	3	8	10	n/a	n/a	n/a
1545312314	1.191817045	18	38	2	2	9	3	10	3	3	8	10	n/a	n/a	n/a
1545312316	1.208091974	18	39	2	2	5	4	1	2	2	8	10	1	1545312316	0.6170241833
1545312317	1.19176507	18	40	2	2	5	4	2	2	2	8	10	1	1545312317	0.5334470272
1545312318	1.20009017	18	41	2	2	5	4	3	2	1	8	11	0	1545312318	0.4751720428
1545312319	1.191759109	18	42	2	2	5	4	4	1	1	8	11	1	1545312319	0.7338590622
1545312320	1.199939966	18	43	2	2	5	4	5	2	2	8	11	1	1545312321	0.7585699558
1545312322	1.191782951	18	44	2	2	5	4	6	1	2	8	10	1	1545312322	0.7169129848
1545312323	1.191651106	18	45	2	2	5	4	7	1	2	8	10	1	1545312323	0.6418600082
1545312324	1.200114012	18	46	2	2	5	4	8	2	1	8	10	1	1545312324	0.6680009365
1545312325	1.191679001	18	47	2	2	5	4	9	1	2	8	9	1	1545312325	0.6335170269
1545312326	1.191704035	18	48	2	2	5	4	10	2	2	8	9	1	1545312327	0.8667910099
1545312328	1.200063944	18	49	2	2	5	4	11	1	2	8	9	1	1545312328	0.8167779446
1545312329	1.200040102	18	50	2	2	5	4	12	2	2	8	8	1	1545312329	0.7084581852
1545312330	1.200082064	18	51	2	2	5	4	13	2	2	8	8	1	1545312330	0.8584439754
1545312331	1.191766977	18	52	2	2	5	4	14	1	2	8	8	n/a	1545312331	n/a
1545312332	1.200093031	18	53	2	2	5	4	15	2	1	8	8	1	1545312333	0.8003029823
1545312334	1.191764116	18	54	2	2	5	4	16	2	2	8	8	n/a	1545312334	n/a
1545312335	1.191811085	18	55	2	2	5	4	17	2	1	8	8	n/a	1545312335	n/a
1545312336	1.200144053	18	56	2	2	5	4	18	2	2	8	9	0	1545312336	0.1669940948
1545312337	1.199913025	18	57	2	2	9	5	1	3	3	8	9	n/a	n/a	n/a
1545312339	1.191727161	18	58	2	2	9	5	2	3	3	8	9	n/a	n/a	n/a
1545312340	1.191773891	18	59	2	2	9	5	3	3	3	8	9	n/a	n/a	n/a
1545312341	1.191601038	18	60	2	2	9	5	4	3	3	8	9	n/a	n/a	n/a
1545312342	1.191778898	18	61	2	2	9	5	5	3	3	8	9	n/a	n/a	n/a
1545312343	1.191910982	18	62	2	2	9	5	6	3	3	8	9	n/a	n/a	n/a
1545312345	1.191790104	18	63	2	2	9	5	7	3	3	8	9	n/a	n/a	n/a
1545312346	1.191815853	18	64	2	2	9	5	8	3	3	8	9	n/a	n/a	n/a
1545312347	1.19183898	18	65	2	2	9	5	9	3	3	8	9	n/a	n/a	n/a
1545312348	1.191766977	18	66	2	2	9	5	10	3	3	8	9	n/a	n/a	n/a
1545312349	1.19997406	18	67	2	2	1	6	1	1	1	8	9	n/a	1545312350	n/a
1545312351	1.191409111	18	68	2	2	1	6	2	1	2	8	9	1	1545312351	0.633439064
1545312352	1.200034857	18	69	2	2	1	6	3	2	1	8	9	1	1545312352	0.8585288525
1545312353	1.191706896	18	70	2	2	1	6	4	2	1	8	10	0	1545312353	0.825150013
1545312354	1.200091124	18	71	2	2	1	6	5	2	1	8	10	1	1545312355	0.5918068886
1545312356	1.200093985	18	72	2	2	1	6	6	1	2	8	10	1	1545312356	0.6584661007
1545312357	1.200022936	18	73	2	2	1	6	7	1	2	8	9	1	1545312357	0.6085050106
1545312358	1.200134993	18	74	2	2	1	6	8	1	2	8	9	1	1545312358	0.6417658329
1545312359	1.200139046	18	75	2	2	1	6	9	2	2	8	9	1	1545312359	0.5753600597
1545312360	1.200282097	18	76	2	2	1	6	10	1	1	8	8	1	1545312361	0.6917521954
1545312362	1.200093031	18	77	2	2	1	6	11	1	2	8	8	1	1545312362	0.6418910027
1545312363	1.191698074	18	78	2	2	1	6	12	1	1	8	8	1	1545312363	0.633523941
1545312364	1.200067997	18	79	2	2	1	6	13	1	2	8	7	1	1545312364	0.6501710415
1545312365	1.19995904	18	80	2	2	1	6	14	1	2	8	7	n/a	1545312365	n/a
1545312366	1.191715002	18	81	2	2	1	6	15	1	2	8	7	1	1545312367	0.4667739868
1545312368	1.191764116	18	82	2	2	1	6	16	2	2	8	7	1	1545312368	0.5167908669
1545312369	1.191870928	18	83	2	2	1	6	17	1	1	8	8	0	1545312369	0.5417900085
1545312370	1.19184804	18	84	2	2	1	6	18	2	2	8	8	n/a	1545312370	n/a
1545312371	1.199671984	18	85	2	2	9	7	1	3	3	8	8	n/a	n/a	n/a
1545312373	1.191766024	18	86	2	2	9	7	2	3	3	8	8	n/a	n/a	n/a
1545312374	1.191694021	18	87	2	2	9	7	3	3	3	8	8	n/a	n/a	n/a
1545312375	1.191734076	18	88	2	2	9	7	4	3	3	8	8	n/a	n/a	n/a
1545312376	1.191762924	18	89	2	2	9	7	5	3	3	8	8	n/a	n/a	n/a
1545312377	1.191802025	18	90	2	2	9	7	6	3	3	8	8	n/a	n/a	n/a
1545312379	1.191826105	18	91	2	2	9	7	7	3	3	8	8	n/a	n/a	n/a
1545312380	1.191758871	18	92	2	2	9	7	8	3	3	8	8	n/a	n/a	n/a
1545312381	1.191712141	18	93	2	2	9	7	9	3	3	8	8	n/a	n/a	n/a
1545312382	1.191807032	18	94	2	2	9	7	10	3	3	8	8	n/a	n/a	n/a
1545312383	1.199783087	18	95	2	2	5	8	1	2	1	8	8	n/a	1545312384	n/a
1545312385	1.191709995	18	96	2	2	5	8	2	2	2	8	8	1	1545312385	0.5750510693
1545312386	1.200031042	18	97	2	2	5	8	3	2	1	8	9	0	1545312386	0.5834379196
1545312387	1.191653967	18	98	2	2	5	8	4	1	1	8	9	1	1545312387	0.7084889412
1545312388	1.200080872	18	99	2	2	5	8	5	1	2	8	9	1	1545312389	0.7001471519
1545312389	1.200052977	18	100	2	2	5	8	6	2	2	8	8	1	1545312390	0.6334111691
1545312391	1.191616058	18	101	2	2	5	8	7	1	1	8	8	1	1545312391	0.6417720318
1545312392	1.191826105	18	102	2	2	5	8	8	2	1	8	8	1	1545312392	0.6585130692
1545312393	1.191736937	18	103	2	2	5	8	9	1	2	8	7	1	1545312393	0.7250878811
1545312394	1.191730022	18	104	2	2	5	8	10	2	1	8	7	n/a	1545312395	n/a
1545312395	1.191632986	18	105	2	2	5	8	11	1	1	8	7	1	1545312396	0.833450079
1545312397	1.20006299	18	106	2	2	5	8	12	1	2	8	7	1	1545312397	0.8501820564
1545312398	1.191830873	18	107	2	2	5	8	13	2	1	8	6	1	1545312398	0.8335268497
1545312399	1.19174695	18	108	2	2	5	8	14	1	1	8	7	0	1545312399	0.8334579468
1545312400	1.191730976	18	109	2	2	5	8	15	2	1	8	7	n/a	1545312401	n/a
1545312402	1.191699982	18	110	2	2	5	8	16	1	2	8	7	0	1545312402	0.8668670654
1545312403	1.191716194	18	111	2	2	5	8	17	1	1	8	8	1	1545312403	0.8750989437
1545312404	1.191764116	18	112	2	2	5	8	18	2	2	8	8	n/a	1545312404	n/a
1545312405	1.191698074	18	113	2	2	9	9	1	3	3	8	8	n/a	n/a	n/a
1545312406	1.191736937	18	114	2	2	9	9	2	3	3	8	8	n/a	n/a	n/a
1545312408	1.191741943	18	115	2	2	9	9	3	3	3	8	8	n/a	n/a	n/a
1545312409	1.191776991	18	116	2	2	9	9	4	3	3	8	8	n/a	n/a	n/a
1545312410	1.191877842	18	117	2	2	9	9	5	3	3	8	8	n/a	n/a	n/a
1545312411	1.191748857	18	118	2	2	9	9	6	3	3	8	8	n/a	n/a	n/a
1545312412	1.191754103	18	119	2	2	9	9	7	3	3	8	8	n/a	n/a	n/a
1545312414	1.191735983	18	120	2	2	9	9	8	3	3	8	8	n/a	n/a	n/a
1545312415	1.191781044	18	121	2	2	9	9	9	3	3	8	8	n/a	n/a	n/a
1545312416	1.19173789	18	122	2	2	9	9	10	3	3	8	8	n/a	n/a	n/a
