onset	duration	run_number	trial_number	att_task	fix_direction	bar_period	bar_direction	bar_step	fix_noise_ori	stim_noise_ori	fix_stair_val	stim_stair_val	response_val	probe_time	reaction_time	reaction_time
1544726295	1.191354036	7	1	1	3	9	1	1	3	3	2	5	NaN	NaN	NaN	NaN
1544726296	1.191621065	7	2	1	3	9	1	2	3	3	2	5	NaN	NaN	NaN	NaN
1544726298	1.191740036	7	3	1	3	9	1	3	3	3	2	5	NaN	NaN	NaN	NaN
1544726299	1.191736937	7	4	1	3	9	1	4	3	3	2	5	NaN	NaN	NaN	NaN
1544726300	1.191914797	7	5	1	3	9	1	5	3	3	2	5	NaN	NaN	NaN	NaN
1544726301	1.191646099	7	6	1	3	9	1	6	3	3	2	5	NaN	NaN	NaN	NaN
1544726302	1.191797972	7	7	1	3	9	1	7	3	3	2	5	NaN	NaN	NaN	NaN
1544726304	1.191701174	7	8	1	3	9	1	8	3	3	2	5	NaN	NaN	NaN	NaN
1544726305	1.191751003	7	9	1	3	9	1	9	3	3	2	5	NaN	NaN	NaN	NaN
NaN	NaN	7	10	1	3	9	1	10	3	3	NaN	NaN	NaN	NaN	NaN	NaN
1544726306	1.199048042	7	11	1	3	1	2	1	2	2	3	5	0	1544726306	0.4253840446	0.4253840446
1544726307	1.191709995	7	12	1	3	1	2	2	2	2	3	5	1	1544726308	0.5417521	0.5417521
1544726309	1.191766024	7	13	1	3	1	2	3	2	1	4	5	0	1544726309	0.5251479149	0.5251479149
1544726310	1.191736937	7	14	1	3	1	2	4	2	1	4	5	1	1544726310	0.6084620953	0.6084620953
1544726311	1.200032949	7	15	1	3	1	2	5	1	1	4	5	1	1544726311	0.6164698601	0.6164698601
1544726312	1.200055838	7	16	1	3	1	2	6	2	1	3	5	1	1544726312	0.5084989071	0.5084989071
1544726313	1.19174695	7	17	1	3	1	2	7	2	1	4	5	0	1544726314	0.5168120861	0.5168120861
1544726315	1.200037956	7	18	1	3	1	2	8	2	1	5	5	0	1544726315	0.5010929108	0.5010929108
1544726316	1.200069904	7	19	1	3	1	2	9	2	1	6	5	0	1544726316	0.5921120644	0.5921120644
1544726317	1.200045824	7	20	1	3	1	2	10	1	2	7	5	0	1544726317	0.5338549614	0.5338549614
1544726318	1.200050116	7	21	1	3	1	2	11	2	2	7	5	1	1544726318	0.6511778831	0.6511778831
1544726319	1.191605091	7	22	1	3	1	2	12	1	2	7	5	1	1544726320	0.5836160183	0.5836160183
1544726321	1.200058937	7	23	1	3	1	2	13	1	1	6	5	1	1544726321	0.6251318455	0.6251318455
1544726322	1.191816092	7	24	1	3	1	2	14	2	2	6	5	1	1544726322	0.6086719036	0.6086719036
1544726323	1.200043917	7	25	1	3	1	2	15	1	2	6	5	1	1544726323	0.5669028759	0.5669028759
1544726324	1.191745996	7	26	1	3	1	2	16	2	1	5	5	1	1544726325	0.500494957	0.500494957
1544726325	1.191754103	7	27	1	3	1	2	17	1	2	5	5	1	1544726326	0.4753320217	0.4753320217
1544726327	1.19172287	7	28	1	3	1	2	18	2	1	5	5	1	1544726327	0.6833949089	0.6833949089
NaN	NaN	7	29	1	3	9	2	19	3	3	NaN	NaN	NaN	NaN	NaN	NaN
1544726329	1.191680193	7	30	1	3	9	3	1	3	3	5	5	NaN	NaN	NaN	NaN
1544726330	1.191468954	7	31	1	3	9	3	2	3	3	5	5	NaN	NaN	NaN	NaN
1544726331	1.191730022	7	32	1	3	9	3	3	3	3	5	5	NaN	NaN	NaN	NaN
1544726332	1.191730976	7	33	1	3	9	3	4	3	3	5	5	NaN	NaN	NaN	NaN
1544726334	1.191677809	7	34	1	3	9	3	5	3	3	5	5	NaN	NaN	NaN	NaN
1544726335	1.191776037	7	35	1	3	9	3	6	3	3	5	5	NaN	NaN	NaN	NaN
1544726336	1.191791058	7	36	1	3	9	3	7	3	3	5	5	NaN	NaN	NaN	NaN
1544726337	1.19162488	7	37	1	3	9	3	8	3	3	5	5	NaN	NaN	NaN	NaN
1544726338	1.191767931	7	38	1	3	9	3	9	3	3	5	5	NaN	NaN	NaN	NaN
NaN	NaN	7	39	1	3	9	3	10	3	3	NaN	NaN	NaN	NaN	NaN	NaN
1544726340	1.199574947	7	40	1	3	5	4	1	2	2	4	5	1	1544726340	0.617151022	0.617151022
1544726341	1.191792965	7	41	1	3	5	4	2	2	2	5	5	0	1544726341	0.5917990208	0.5917990208
1544726342	1.191715956	7	42	1	3	5	4	3	1	2	5	5	1	1544726342	0.5335249901	0.5335249901
1544726343	1.191728115	7	43	1	3	5	4	4	1	2	5	5	1	1544726344	0.5417010784	0.5417010784
1544726345	1.191657066	7	44	1	3	5	4	5	1	1	4	5	1	1544726345	0.5000600815	0.5000600815
1544726346	1.191718102	7	45	1	3	5	4	6	2	1	5	5	0	1544726346	0.5917451382	0.5917451382
1544726347	1.191714048	7	46	1	3	5	4	7	2	2	5	5	1	1544726347	0.6501669884	0.6501669884
1544726348	1.191625834	7	47	1	3	5	4	8	2	2	5	5	1	1544726348	0.691642046	0.691642046
1544726349	1.191718102	7	48	1	3	5	4	9	1	1	4	5	1	1544726350	0.6001150608	0.6001150608
1544726351	1.191837072	7	49	1	3	5	4	10	1	1	4	5	1	1544726351	0.5334429741	0.5334429741
1544726352	1.191688061	7	50	1	3	5	4	11	2	1	5	5	0	1544726352	0.6751320362	0.6751320362
1544726353	1.191704988	7	51	1	3	5	4	12	2	2	6	5	0	1544726353	0.6083869934	0.6083869934
1544726354	1.191735983	7	52	1	3	5	4	13	1	2	6	5	1	1544726354	0.5418329239	0.5418329239
1544726355	1.191715956	7	53	1	3	5	4	14	1	2	6	5	1	1544726356	0.5084490776	0.5084490776
1544726357	1.191714048	7	54	1	3	5	4	15	1	2	5	5	1	1544726357	0.5501670837	0.5501670837
1544726358	1.191692829	7	55	1	3	5	4	16	2	1	5	5	1	1544726358	0.7084848881	0.7084848881
1544726359	1.191733122	7	56	1	3	5	4	17	1	2	5	5	1	1544726359	0.6417629719	0.6417629719
1544726360	1.191637039	7	57	1	3	5	4	18	2	2	4	5	1	1544726360	0.5418519974	0.5418519974
NaN	NaN	7	58	1	3	9	4	19	3	3	NaN	NaN	NaN	NaN	NaN	NaN
1544726362	1.191749096	7	59	1	3	9	5	1	3	3	4	5	NaN	NaN	NaN	NaN
1544726364	1.191657066	7	60	1	3	9	5	2	3	3	4	5	NaN	NaN	NaN	NaN
1544726365	1.191696167	7	61	1	3	9	5	3	3	3	4	5	NaN	NaN	NaN	NaN
1544726366	1.191708088	7	62	1	3	9	5	4	3	3	4	5	NaN	NaN	NaN	NaN
1544726367	1.191809893	7	63	1	3	9	5	5	3	3	4	5	NaN	NaN	NaN	NaN
1544726368	1.191759825	7	64	1	3	9	5	6	3	3	4	5	NaN	NaN	NaN	NaN
1544726370	1.191766024	7	65	1	3	9	5	7	3	3	4	5	NaN	NaN	NaN	NaN
1544726371	1.191765785	7	66	1	3	9	5	8	3	3	4	5	NaN	NaN	NaN	NaN
1544726372	1.191751003	7	67	1	3	9	5	9	3	3	4	5	NaN	NaN	NaN	NaN
NaN	NaN	7	68	1	3	9	5	10	3	3	NaN	NaN	NaN	NaN	NaN	NaN
1544726374	1.191792965	7	69	1	3	1	6	1	1	2	4	5	1	1544726375	0.5088810921	0.5088810921
1544726376	1.191736937	7	70	1	3	1	6	2	2	2	4	5	1	1544726376	0.8334460258	0.8334460258
1544726377	1.200016022	7	71	1	3	1	6	3	1	2	3	5	1	1544726377	0.7251088619	0.7251088619
1544726378	1.19166398	7	72	1	3	1	6	4	1	1	3	5	1	1544726378	0.6501860619	0.6501860619
1544726379	1.199982166	7	73	1	3	1	6	5	1	1	3	5	1	1544726379	0.6583719254	0.6583719254
1544726380	1.191794872	7	74	1	3	1	6	6	2	1	2	5	1	1544726381	0.5918369293	0.5918369293
1544726382	1.191695929	7	75	1	3	1	6	7	2	2	3	5	0	1544726382	0.533449173	0.533449173
1544726383	1.191685915	7	76	1	3	1	6	8	1	1	3	5	1	1544726383	0.5584220886	0.5584220886
1544726384	1.19166398	7	77	1	3	1	6	9	2	1	4	5	0	1544726384	0.5834481716	0.5834481716
1544726385	1.191668034	7	78	1	3	1	6	10	1	2	4	5	1	1544726385	0.575097084	0.575097084
1544726386	1.200124025	7	79	1	3	1	6	11	1	1	4	5	1	1544726387	0.5584738255	0.5584738255
1544726388	1.191679001	7	80	1	3	1	6	12	1	1	5	5	0	1544726388	0.5003590584	0.5003590584
1544726389	1.191679955	7	81	1	3	1	6	13	1	1	5	5	1	1544726389	0.5584409237	0.5584409237
1544726390	1.191694021	7	82	1	3	1	6	14	2	1	5	5	1	1544726390	0.7168090343	0.7168090343
1544726391	1.191709995	7	83	1	3	1	6	15	2	2	4	5	1	1544726392	0.7250959873	0.7250959873
1544726392	1.191692114	7	84	1	3	1	6	16	1	2	4	5	1	1544726393	0.6251430511	0.6251430511
1544726394	1.191624165	7	85	1	3	1	6	17	2	1	4	5	1	1544726394	0.725110054	0.725110054
1544726395	1.191787004	7	86	1	3	1	6	18	1	2	3	5	1	1544726395	0.6168279648	0.6168279648
NaN	NaN	7	87	1	3	9	6	19	3	3	NaN	NaN	NaN	NaN	NaN	NaN
1544726397	1.191723108	7	88	1	3	9	7	1	3	3	3	5	NaN	NaN	NaN	NaN
1544726398	1.191710949	7	89	1	3	9	7	2	3	3	3	5	NaN	NaN	NaN	NaN
1544726400	1.200006008	7	90	1	3	9	7	3	3	3	3	5	NaN	NaN	NaN	NaN
1544726401	1.19166398	7	91	1	3	9	7	4	3	3	3	5	NaN	NaN	NaN	NaN
1544726402	1.191665173	7	92	1	3	9	7	5	3	3	3	5	NaN	NaN	NaN	NaN
1544726403	1.191659927	7	93	1	3	9	7	6	3	3	3	5	NaN	NaN	NaN	NaN
1544726404	1.191635847	7	94	1	3	9	7	7	3	3	3	5	NaN	NaN	NaN	NaN
1544726406	1.191627979	7	95	1	3	9	7	8	3	3	3	5	NaN	NaN	NaN	NaN
1544726407	1.191666842	7	96	1	3	9	7	9	3	3	3	5	NaN	NaN	NaN	NaN
NaN	NaN	7	97	1	3	9	7	10	3	3	NaN	NaN	NaN	NaN	NaN	NaN
1544726409	1.191800117	7	98	1	3	5	8	1	1	2	3	5	1	1544726409	0.3583819866	0.3583819866
1544726410	1.191709995	7	99	1	3	5	8	2	2	1	4	5	0	1544726411	0.3250889778	0.3250889778
1544726412	1.191772938	7	100	1	3	5	8	3	1	2	4	5	1	1544726412	0.1667511463	0.1667511463
1544726413	1.199987173	7	101	1	3	5	8	4	1	2	4	5	1	1544726413	0.5084781647	0.5084781647
1544726414	1.191662073	7	102	1	3	5	8	5	1	1	5	5	0	1544726414	0.5251190662	0.5251190662
1544726415	1.199985027	7	103	1	3	5	8	6	1	2	5	5	1	1544726415	0.5667788982	0.5667788982
1544726416	1.191687107	7	104	1	3	5	8	7	1	2	5	5	1	1544726417	0.5335171223	0.5335171223
1544726418	1.19165206	7	105	1	3	5	8	8	1	2	4	5	1	1544726418	0.4584920406	0.4584920406
1544726419	1.191666126	7	106	1	3	5	8	9	1	2	4	5	1	1544726419	0.400083065	0.400083065
1544726420	1.191683769	7	107	1	3	5	8	10	2	2	5	5	0	1544726420	0.3417589664	0.3417589664
1544726421	1.191678047	7	108	1	3	5	8	11	2	1	6	5	0	1544726421	0.5167081356	0.5167081356
1544726422	1.191666842	7	109	1	3	5	8	12	2	1	7	5	0	1544726423	0.5917918682	0.5917918682
1544726424	1.191692114	7	110	1	3	5	8	13	1	2	7	5	1	1544726424	0.6500971317	0.6500971317
1544726425	1.191692114	7	111	1	3	5	8	14	1	1	7	5	1	1544726425	0.5834419727	0.5834419727
1544726426	1.191699982	7	112	1	3	5	8	15	1	2	8	5	0	1544726426	0.6335000992	0.6335000992
1544726427	1.200124025	7	113	1	3	5	8	16	2	2	8	5	1	1544726427	0.6586508751	0.6586508751
1544726428	1.191645145	7	114	1	3	5	8	17	2	1	8	5	1	1544726429	0.6501419544	0.6501419544
1544726430	1.191617012	7	115	1	3	5	8	18	2	2	7	5	1	1544726430	0.6750891209	0.6750891209
NaN	NaN	7	116	1	3	9	8	19	3	3	NaN	NaN	NaN	NaN	NaN	NaN
1544726432	1.191733122	7	117	1	3	9	9	1	3	3	7	5	NaN	NaN	NaN	NaN
1544726433	1.191807985	7	118	1	3	9	9	2	3	3	7	5	NaN	NaN	NaN	NaN
1544726434	1.191801071	7	119	1	3	9	9	3	3	3	7	5	NaN	NaN	NaN	NaN
1544726436	1.191745996	7	120	1	3	9	9	4	3	3	7	5	NaN	NaN	NaN	NaN
1544726437	1.191781998	7	121	1	3	9	9	5	3	3	7	5	NaN	NaN	NaN	NaN
1544726438	1.191723108	7	122	1	3	9	9	6	3	3	7	5	NaN	NaN	NaN	NaN
1544726439	1.191809893	7	123	1	3	9	9	7	3	3	7	5	NaN	NaN	NaN	NaN
1544726440	1.191688061	7	124	1	3	9	9	8	3	3	7	5	NaN	NaN	NaN	NaN
1544726442	1.191840172	7	125	1	3	9	9	9	3	3	7	5	NaN	NaN	NaN	NaN
NaN	NaN	7	126	1	3	9	9	10	3	3	NaN	NaN	NaN	NaN	NaN	NaN
