onset	duration	run_number	trial_number	att_task	fix_direction	bar_period	bar_direction	bar_step	fix_noise_ori	stim_noise_ori	fix_stair_val	stim_stair_val	response_val	probe_time	reaction_time
1545309920	1.191458941	10	1	2	3	9	1	1	3	3	6	4	n/a	n/a	n/a
1545309921	1.191617012	10	2	2	3	9	1	2	3	3	6	4	n/a	n/a	n/a
1545309923	1.191860914	10	3	2	3	9	1	3	3	3	6	4	n/a	n/a	n/a
1545309924	1.191721916	10	4	2	3	9	1	4	3	3	6	4	n/a	n/a	n/a
1545309925	1.191705942	10	5	2	3	9	1	5	3	3	6	4	n/a	n/a	n/a
1545309926	1.191695929	10	6	2	3	9	1	6	3	3	6	4	n/a	n/a	n/a
1545309927	1.191817045	10	7	2	3	9	1	7	3	3	6	4	n/a	n/a	n/a
1545309929	1.191672087	10	8	2	3	9	1	8	3	3	6	4	n/a	n/a	n/a
1545309930	1.191786051	10	9	2	3	9	1	9	3	3	6	4	n/a	n/a	n/a
1545309931	1.191767931	10	10	2	3	9	1	10	3	3	6	4	n/a	n/a	n/a
1545309932	1.204488993	10	11	2	3	1	2	1	2	1	6	4	n/a	1545309933	n/a
1545309934	1.200099945	10	12	2	3	1	2	2	2	1	6	4	1	1545309934	0.05866503716
1545309935	1.200026035	10	13	2	3	1	2	3	2	1	6	3	1	1545309935	0.8586351871
1545309936	1.208393097	10	14	2	3	1	2	4	1	2	6	3	0	1545309936	0.9169840813
1545309937	1.191740036	10	15	2	3	1	2	5	2	2	6	5	0	1545309938	0.6247961521
1545309938	1.191721201	10	16	2	3	1	2	6	2	2	6	5	1	1545309939	0.5752489567
1545309940	1.191729069	10	17	2	3	1	2	7	1	1	6	5	1	1545309940	0.73458004
1545309941	1.191710949	10	18	2	3	1	2	8	1	2	6	4	1	1545309941	0.8169639111
1545309942	1.191682816	10	19	2	3	1	2	9	1	2	6	4	1	1545309942	0.7585959435
1545309943	1.191666842	10	20	2	3	1	2	10	2	1	6	5	0	1545309944	0.8253850937
1545309944	1.199884892	10	21	2	3	1	2	11	1	1	6	5	n/a	1545309945	n/a
1545309946	1.191698074	10	22	2	3	1	2	12	2	1	6	6	0	1545309946	0.8262579441
1545309947	1.200037003	10	23	2	3	1	2	13	1	2	6	6	1	1545309947	0.8170211315
1545309948	1.199914932	10	24	2	3	1	2	14	1	1	6	6	n/a	1545309948	n/a
1545309949	1.200026989	10	25	2	3	1	2	15	1	2	6	6	n/a	1545309950	n/a
1545309950	1.200056076	10	26	2	3	1	2	16	1	1	6	6	n/a	1545309951	n/a
1545309952	1.191743851	10	27	2	3	1	2	17	2	1	6	6	n/a	1545309952	n/a
1545309953	1.191632032	10	28	2	3	1	2	18	1	2	6	6	n/a	1545309953	n/a
1545309954	1.198714018	10	29	2	3	9	3	1	3	3	6	6	n/a	n/a	n/a
1545309955	1.191519976	10	30	2	3	9	3	2	3	3	6	6	n/a	n/a	n/a
1545309957	1.191772938	10	31	2	3	9	3	3	3	3	6	6	n/a	n/a	n/a
1545309958	1.191776991	10	32	2	3	9	3	4	3	3	6	6	n/a	n/a	n/a
1545309959	1.19178915	10	33	2	3	9	3	5	3	3	6	6	n/a	n/a	n/a
1545309960	1.191738844	10	34	2	3	9	3	6	3	3	6	6	n/a	n/a	n/a
1545309961	1.191777945	10	35	2	3	9	3	7	3	3	6	6	n/a	n/a	n/a
1545309963	1.191603899	10	36	2	3	9	3	8	3	3	6	6	n/a	n/a	n/a
1545309964	1.191725016	10	37	2	3	9	3	9	3	3	6	6	n/a	n/a	n/a
1545309965	1.191726208	10	38	2	3	9	3	10	3	3	6	6	n/a	n/a	n/a
1545309966	1.208017111	10	39	2	3	5	4	1	1	2	6	6	n/a	1545309967	n/a
1545309968	1.19172883	10	40	2	3	5	4	2	1	2	6	6	1	1545309968	0.6754209995
1545309969	1.191730022	10	41	2	3	5	4	3	2	1	6	5	1	1545309969	0.7669239044
1545309970	1.191615105	10	42	2	3	5	4	4	2	2	6	5	1	1545309970	0.6922528744
1545309971	1.191697836	10	43	2	3	5	4	5	1	1	6	5	1	1545309971	0.9003360271
1545309972	1.200052977	10	44	2	3	5	4	6	1	2	6	4	1	1545309973	0.7667369843
1545309974	1.191745043	10	45	2	3	5	4	7	1	1	6	4	n/a	1545309974	n/a
1545309975	1.191700935	10	46	2	3	5	4	8	1	2	6	4	1	1545309975	0.7751379013
1545309976	1.200068951	10	47	2	3	5	4	9	1	2	6	4	1	1545309976	0.7917580605
1545309977	1.191757917	10	48	2	3	5	4	10	1	2	6	3	1	1545309977	0.6333930492
1545309978	1.200037003	10	49	2	3	5	4	11	2	1	6	3	1	1545309979	0.8585569859
1545309980	1.191699982	10	50	2	3	5	4	12	1	2	6	3	n/a	1545309980	n/a
1545309981	1.200104952	10	51	2	3	5	4	13	2	1	6	3	n/a	1545309981	n/a
1545309982	1.200011015	10	52	2	3	5	4	14	2	2	6	3	n/a	1545309982	n/a
1545309983	1.191719055	10	53	2	3	5	4	15	1	2	6	3	n/a	1545309983	n/a
1545309984	1.200044155	10	54	2	3	5	4	16	2	1	6	3	n/a	1545309985	n/a
1545309986	1.191724062	10	55	2	3	5	4	17	2	2	6	3	n/a	1545309986	n/a
1545309987	1.191806078	10	56	2	3	5	4	18	1	2	6	3	n/a	1545309987	n/a
1545309988	1.200084925	10	57	2	3	9	5	1	3	3	6	3	n/a	n/a	n/a
1545309989	1.191374063	10	58	2	3	9	5	2	3	3	6	3	n/a	n/a	n/a
1545309991	1.19175601	10	59	2	3	9	5	3	3	3	6	3	n/a	n/a	n/a
1545309992	1.191736937	10	60	2	3	9	5	4	3	3	6	3	n/a	n/a	n/a
1545309993	1.191628933	10	61	2	3	9	5	5	3	3	6	3	n/a	n/a	n/a
1545309994	1.191719055	10	62	2	3	9	5	6	3	3	6	3	n/a	n/a	n/a
1545309995	1.191797972	10	63	2	3	9	5	7	3	3	6	3	n/a	n/a	n/a
1545309997	1.191686869	10	64	2	3	9	5	8	3	3	6	3	n/a	n/a	n/a
1545309998	1.191791058	10	65	2	3	9	5	9	3	3	6	3	n/a	n/a	n/a
1545309999	1.191782951	10	66	2	3	9	5	10	3	3	6	3	n/a	n/a	n/a
1545310000	1.199702024	10	67	2	3	1	6	1	1	2	6	4	0	1545310001	0.6836061478
1545310002	1.191782951	10	68	2	3	1	6	2	1	1	6	4	1	1545310002	0.6168348789
1545310003	1.191714048	10	69	2	3	1	6	3	1	2	6	5	0	1545310003	0.7668950558
1545310004	1.200088024	10	70	2	3	1	6	4	1	2	6	6	0	1545310004	0.7586929798
1545310005	1.199964046	10	71	2	3	1	6	5	2	1	6	6	1	1545310005	0.7585201263
1545310006	1.200052977	10	72	2	3	1	6	6	2	1	6	6	n/a	1545310007	n/a
1545310008	1.191796064	10	73	2	3	1	6	7	2	2	6	6	1	1545310008	0.7750911713
1545310009	1.191601038	10	74	2	3	1	6	8	2	2	6	5	1	1545310009	0.7250888348
1545310010	1.191665173	10	75	2	3	1	6	9	1	2	6	5	1	1545310010	0.616779089
1545310011	1.19173193	10	76	2	3	1	6	10	2	2	6	5	1	1545310011	0.6417500973
1545310012	1.191744089	10	77	2	3	1	6	11	1	2	6	4	1	1545310013	0.7834448814
1545310014	1.200093985	10	78	2	3	1	6	12	2	2	6	4	1	1545310014	0.7251298428
1545310015	1.200025082	10	79	2	3	1	6	13	2	2	6	4	1	1545310015	0.725178957
1545310016	1.200138092	10	80	2	3	1	6	14	2	1	6	3	1	1545310016	0.6751470566
1545310017	1.191687822	10	81	2	3	1	6	15	2	1	6	4	0	1545310017	0.8002209663
1545310018	1.191768885	10	82	2	3	1	6	16	2	1	6	4	1	1545310019	0.7501809597
1545310020	1.191718102	10	83	2	3	1	6	17	1	2	6	5	0	1545310020	0.7752270699
1545310021	1.191788197	10	84	2	3	1	6	18	2	2	6	5	0	1545310021	0.8668708801
1545310022	1.199676037	10	85	2	3	9	7	1	3	3	6	6	n/a	n/a	n/a
1545310023	1.200057983	10	86	2	3	9	7	2	3	3	6	6	n/a	n/a	n/a
1545310025	1.191648006	10	87	2	3	9	7	3	3	3	6	6	n/a	n/a	n/a
1545310026	1.191679955	10	88	2	3	9	7	4	3	3	6	6	n/a	n/a	n/a
1545310027	1.191689014	10	89	2	3	9	7	5	3	3	6	6	n/a	n/a	n/a
1545310028	1.19172287	10	90	2	3	9	7	6	3	3	6	6	n/a	n/a	n/a
1545310029	1.191758871	10	91	2	3	9	7	7	3	3	6	6	n/a	n/a	n/a
1545310031	1.191785097	10	92	2	3	9	7	8	3	3	6	6	n/a	n/a	n/a
1545310032	1.191734076	10	93	2	3	9	7	9	3	3	6	6	n/a	n/a	n/a
1545310033	1.191740036	10	94	2	3	9	7	10	3	3	6	6	n/a	n/a	n/a
1545310034	1.199919939	10	95	2	3	5	8	1	1	1	6	6	n/a	1545310035	n/a
1545310035	1.191450119	10	96	2	3	5	8	2	2	1	6	6	1	1545310036	0.8340790272
1545310037	1.191681147	10	97	2	3	5	8	3	2	2	6	6	1	1545310037	0.6500680447
1545310038	1.191635132	10	98	2	3	5	8	4	1	2	6	5	1	1545310038	0.6168470383
1545310039	1.191640854	10	99	2	3	5	8	5	1	2	6	5	1	1545310039	0.8417229652
1545310040	1.191704988	10	100	2	3	5	8	6	2	1	6	5	1	1545310041	0.8834028244
1545310041	1.191692829	10	101	2	3	5	8	7	1	1	6	5	n/a	1545310042	n/a
1545310043	1.199978113	10	102	2	3	5	8	8	2	2	6	4	1	1545310043	0.8417620659
1545310044	1.191693068	10	103	2	3	5	8	9	1	2	6	4	1	1545310044	0.8417088985
1545310045	1.200009823	10	104	2	3	5	8	10	1	1	6	5	0	1545310045	0.8002300262
1545310046	1.199998856	10	105	2	3	5	8	11	1	1	6	5	0	1545310047	0.8670699596
1545310047	1.191647053	10	106	2	3	5	8	12	2	2	6	6	1	1545310048	0.8001170158
1545310049	1.200043917	10	107	2	3	5	8	13	1	1	6	6	n/a	1545310049	n/a
1545310050	1.191721916	10	108	2	3	5	8	14	1	2	6	6	n/a	1545310050	n/a
1545310051	1.191720009	10	109	2	3	5	8	15	1	1	6	6	1	1545310051	0.8251001835
1545310052	1.200011015	10	110	2	3	5	8	16	1	2	6	6	0	1545310053	0.8918089867
1545310053	1.191662073	10	111	2	3	5	8	17	2	1	6	7	1	1545310054	0.7917759418
1545310055	1.199933052	10	112	2	3	5	8	18	1	1	6	7	1	1545310055	0.8416268826
1545310056	1.199717999	10	113	2	3	9	9	1	3	3	6	7	n/a	n/a	n/a
1545310057	1.191742182	10	114	2	3	9	9	2	3	3	6	7	n/a	n/a	n/a
1545310058	1.191761017	10	115	2	3	9	9	3	3	3	6	7	n/a	n/a	n/a
1545310060	1.191735983	10	116	2	3	9	9	4	3	3	6	7	n/a	n/a	n/a
1545310061	1.191714048	10	117	2	3	9	9	5	3	3	6	7	n/a	n/a	n/a
1545310062	1.191608191	10	118	2	3	9	9	6	3	3	6	7	n/a	n/a	n/a
1545310063	1.191712141	10	119	2	3	9	9	7	3	3	6	7	n/a	n/a	n/a
1545310064	1.191706896	10	120	2	3	9	9	8	3	3	6	7	n/a	n/a	n/a
1545310066	1.1916821	10	121	2	3	9	9	9	3	3	6	7	n/a	n/a	n/a
1545310067	1.191668987	10	122	2	3	9	9	10	3	3	6	7	n/a	n/a	n/a
