onset	duration	run_number	trial_number	att_task	fix_direction	bar_period	bar_direction	bar_step	fix_noise_ori	stim_noise_ori	fix_stair_val	stim_stair_val	response_val	probe_time	reaction_time	reaction_time
1544192425	1.199795008	3	1	1	4	9	1	1	3	3	9	9	NaN	NaN	NaN	NaN
1544192426	1.191637993	3	2	1	4	9	1	2	3	3	9	9	NaN	NaN	NaN	NaN
1544192427	1.19175601	3	3	1	4	9	1	3	3	3	9	9	NaN	NaN	NaN	NaN
1544192428	1.191773891	3	4	1	4	9	1	4	3	3	9	9	NaN	NaN	NaN	NaN
1544192430	1.191711187	3	5	1	4	9	1	5	3	3	9	9	NaN	NaN	NaN	NaN
1544192431	1.191610098	3	6	1	4	9	1	6	3	3	9	9	NaN	NaN	NaN	NaN
1544192432	1.191822052	3	7	1	4	9	1	7	3	3	9	9	NaN	NaN	NaN	NaN
1544192433	1.191622972	3	8	1	4	9	1	8	3	3	9	9	NaN	NaN	NaN	NaN
1544192434	1.191735029	3	9	1	4	9	1	9	3	3	9	9	NaN	NaN	NaN	NaN
NaN	NaN	3	10	1	4	9	1	10	3	3	NaN	NaN	NaN	NaN	NaN	NaN
1544192437	1.198493958	3	11	1	4	1	2	1	2	2	9	9	NaN	1544192437	NaN	NaN
1544192438	1.191671133	3	12	1	4	1	2	2	1	2	9	9	NaN	1544192438	NaN	NaN
1544192439	1.191761971	3	13	1	4	1	2	3	1	2	9	9	NaN	1544192440	NaN	NaN
1544192440	1.191735029	3	14	1	4	1	2	4	2	2	9	9	NaN	1544192441	NaN	NaN
1544192442	1.341751099	3	15	1	4	1	2	5	1	1	9	9	NaN	1544192442	NaN	NaN
1544192443	1.191692114	3	16	1	4	1	2	6	2	1	9	9	NaN	1544192443	NaN	NaN
1544192444	1.191702127	3	17	1	4	1	2	7	1	1	9	9	NaN	1544192445	NaN	NaN
1544192445	1.191693783	3	18	1	4	1	2	8	2	2	9	9	NaN	1544192446	NaN	NaN
1544192447	1.191733122	3	19	1	4	1	2	9	2	2	9	9	NaN	1544192447	NaN	NaN
1544192448	1.200181961	3	20	1	4	1	2	10	2	2	9	9	NaN	1544192448	NaN	NaN
1544192449	1.191724062	3	21	1	4	1	2	11	2	1	9	9	NaN	1544192449	NaN	NaN
1544192450	1.191751003	3	22	1	4	1	2	12	1	1	9	9	NaN	1544192451	NaN	NaN
1544192451	1.191732883	3	23	1	4	1	2	13	2	2	9	9	NaN	1544192452	NaN	NaN
1544192453	1.191583872	3	24	1	4	1	2	14	1	2	9	9	NaN	1544192453	NaN	NaN
1544192454	1.200114012	3	25	1	4	1	2	15	2	1	9	9	NaN	1544192454	NaN	NaN
1544192455	1.191668987	3	26	1	4	1	2	16	1	1	9	9	NaN	1544192455	NaN	NaN
1544192456	1.191716909	3	27	1	4	1	2	17	1	2	9	9	NaN	1544192457	NaN	NaN
1544192457	1.208385944	3	28	1	4	1	2	18	1	2	9	9	NaN	1544192458	NaN	NaN
1544192459	1.191778898	3	29	1	4	1	2	19	2	1	9	9	NaN	1544192459	NaN	NaN
1544192460	1.200026035	3	30	1	4	1	2	20	2	2	9	9	NaN	1544192460	NaN	NaN
1544192461	1.191769123	3	31	1	4	1	2	21	2	2	9	9	NaN	1544192461	NaN	NaN
1544192462	1.191768885	3	32	1	4	1	2	22	2	2	9	9	NaN	1544192463	NaN	NaN
1544192463	1.19175601	3	33	1	4	1	2	23	1	2	9	9	NaN	1544192464	NaN	NaN
1544192465	1.191766024	3	34	1	4	1	2	24	1	1	9	9	NaN	1544192465	NaN	NaN
1544192466	1.200052977	3	35	1	4	1	2	25	1	1	9	9	NaN	1544192466	NaN	NaN
1544192467	1.200069904	3	36	1	4	1	2	26	1	1	9	9	NaN	1544192467	NaN	NaN
1544192468	1.191735983	3	37	1	4	1	2	27	1	1	9	9	NaN	1544192469	NaN	NaN
1544192469	1.200016975	3	38	1	4	1	2	28	1	1	9	9	NaN	1544192470	NaN	NaN
1544192471	1.191774845	3	39	1	4	1	2	29	2	2	9	9	NaN	1544192471	NaN	NaN
1544192472	1.200065136	3	40	1	4	1	2	30	2	2	9	9	NaN	1544192472	NaN	NaN
1544192473	1.191724062	3	41	1	4	1	2	31	2	1	9	9	NaN	1544192473	NaN	NaN
1544192474	1.191798925	3	42	1	4	1	2	32	1	2	9	9	NaN	1544192475	NaN	NaN
NaN	NaN	3	43	1	4	9	2	33	3	3	NaN	NaN	NaN	NaN	NaN	NaN
1544192477	1.199769974	3	44	1	4	9	3	1	3	3	9	9	NaN	NaN	NaN	NaN
1544192478	1.191468	3	45	1	4	9	3	2	3	3	9	9	NaN	NaN	NaN	NaN
1544192479	1.191747189	3	46	1	4	9	3	3	3	3	9	9	NaN	NaN	NaN	NaN
1544192480	1.191720009	3	47	1	4	9	3	4	3	3	9	9	NaN	NaN	NaN	NaN
1544192482	1.191738844	3	48	1	4	9	3	5	3	3	9	9	NaN	NaN	NaN	NaN
1544192483	1.191696167	3	49	1	4	9	3	6	3	3	9	9	NaN	NaN	NaN	NaN
1544192484	1.191790104	3	50	1	4	9	3	7	3	3	9	9	NaN	NaN	NaN	NaN
1544192485	1.191608906	3	51	1	4	9	3	8	3	3	9	9	NaN	NaN	NaN	NaN
1544192486	1.191716909	3	52	1	4	9	3	9	3	3	9	9	NaN	NaN	NaN	NaN
NaN	NaN	3	53	1	4	9	3	10	3	3	NaN	NaN	NaN	NaN	NaN	NaN
1544192489	1.216487169	3	54	1	4	3	4	1	1	2	9	9	NaN	1544192489	NaN	NaN
1544192490	1.21664691	3	55	1	4	3	4	2	2	2	9	9	NaN	1544192490	NaN	NaN
1544192491	1.191684961	3	56	1	4	3	4	3	2	1	9	9	NaN	1544192492	NaN	NaN
1544192493	1.191745996	3	57	1	4	3	4	4	1	1	9	9	NaN	1544192493	NaN	NaN
1544192494	1.191758156	3	58	1	4	3	4	5	1	2	9	9	NaN	1544192494	NaN	NaN
1544192495	1.191778898	3	59	1	4	3	4	6	1	1	9	9	NaN	1544192495	NaN	NaN
1544192496	1.200077057	3	60	1	4	3	4	7	1	2	9	9	NaN	1544192496	NaN	NaN
1544192497	1.191727877	3	61	1	4	3	4	8	1	2	9	9	NaN	1544192498	NaN	NaN
1544192499	1.191734076	3	62	1	4	3	4	9	2	1	9	9	NaN	1544192499	NaN	NaN
1544192500	1.200125933	3	63	1	4	3	4	10	2	1	9	9	NaN	1544192500	NaN	NaN
1544192501	1.200104952	3	64	1	4	3	4	11	1	2	9	9	NaN	1544192501	NaN	NaN
1544192502	1.20843792	3	65	1	4	3	4	12	2	2	9	9	NaN	1544192503	NaN	NaN
1544192503	1.200088024	3	66	1	4	3	4	13	2	2	9	9	NaN	1544192504	NaN	NaN
1544192505	1.191699028	3	67	1	4	3	4	14	1	2	9	9	NaN	1544192505	NaN	NaN
1544192506	1.191679001	3	68	1	4	3	4	15	1	2	9	9	NaN	1544192506	NaN	NaN
1544192507	1.191702127	3	69	1	4	3	4	16	2	2	9	9	NaN	1544192507	NaN	NaN
1544192508	1.200083971	3	70	1	4	3	4	17	2	2	9	9	NaN	1544192509	NaN	NaN
1544192509	1.191745996	3	71	1	4	3	4	18	1	2	9	9	NaN	1544192510	NaN	NaN
NaN	NaN	3	72	1	4	9	4	19	3	3	NaN	NaN	NaN	NaN	NaN	NaN
1544192512	1.191755056	3	73	1	4	9	5	1	3	3	9	9	NaN	NaN	NaN	NaN
1544192513	1.1916008	3	74	1	4	9	5	2	3	3	9	9	NaN	NaN	NaN	NaN
1544192514	1.191729069	3	75	1	4	9	5	3	3	3	9	9	NaN	NaN	NaN	NaN
1544192516	1.191766024	3	76	1	4	9	5	4	3	3	9	9	NaN	NaN	NaN	NaN
1544192517	1.191638947	3	77	1	4	9	5	5	3	3	9	9	NaN	NaN	NaN	NaN
1544192518	1.191715956	3	78	1	4	9	5	6	3	3	9	9	NaN	NaN	NaN	NaN
1544192519	1.191740036	3	79	1	4	9	5	7	3	3	9	9	NaN	NaN	NaN	NaN
1544192520	1.191776991	3	80	1	4	9	5	8	3	3	9	9	NaN	NaN	NaN	NaN
1544192522	1.191798925	3	81	1	4	9	5	9	3	3	9	9	NaN	NaN	NaN	NaN
NaN	NaN	3	82	1	4	9	5	10	3	3	NaN	NaN	NaN	NaN	NaN	NaN
1544192524	1.191704988	3	83	1	4	5	6	1	2	1	9	9	NaN	1544192524	NaN	NaN
1544192525	1.191709042	3	84	1	4	5	6	2	2	2	9	9	NaN	1544192526	NaN	NaN
1544192527	1.191741943	3	85	1	4	5	6	3	1	1	9	9	NaN	1544192527	NaN	NaN
1544192528	1.191720963	3	86	1	4	5	6	4	1	2	9	9	NaN	1544192528	NaN	NaN
1544192529	1.191798925	3	87	1	4	5	6	5	1	2	9	9	NaN	1544192529	NaN	NaN
1544192530	1.191627979	3	88	1	4	5	6	6	2	1	9	9	NaN	1544192530	NaN	NaN
1544192531	1.200046062	3	89	1	4	5	6	7	2	1	9	9	NaN	1544192532	NaN	NaN
1544192533	1.19174099	3	90	1	4	5	6	8	2	1	9	9	NaN	1544192533	NaN	NaN
1544192534	1.191797972	3	91	1	4	5	6	9	2	2	9	9	NaN	1544192534	NaN	NaN
1544192535	1.200045109	3	92	1	4	5	6	10	2	2	9	9	NaN	1544192535	NaN	NaN
1544192536	1.191709995	3	93	1	4	5	6	11	2	1	9	9	NaN	1544192536	NaN	NaN
1544192537	1.191751003	3	94	1	4	5	6	12	2	2	9	9	NaN	1544192538	NaN	NaN
1544192539	1.191716909	3	95	1	4	5	6	13	1	2	9	9	NaN	1544192539	NaN	NaN
1544192540	1.191720009	3	96	1	4	5	6	14	1	2	9	9	NaN	1544192540	NaN	NaN
1544192541	1.200068951	3	97	1	4	5	6	15	1	1	9	9	NaN	1544192541	NaN	NaN
1544192542	1.191739082	3	98	1	4	5	6	16	1	1	9	9	NaN	1544192542	NaN	NaN
1544192543	1.191816807	3	99	1	4	5	6	17	1	1	9	9	NaN	1544192544	NaN	NaN
1544192545	1.191753149	3	100	1	4	5	6	18	1	1	9	9	NaN	1544192545	NaN	NaN
1544192546	1.191735029	3	101	1	4	5	6	19	1	1	9	9	NaN	1544192546	NaN	NaN
1544192547	1.200060129	3	102	1	4	5	6	20	1	2	9	9	NaN	1544192547	NaN	NaN
1544192548	1.191781044	3	103	1	4	5	6	21	1	1	9	9	NaN	1544192548	NaN	NaN
1544192549	1.200052977	3	104	1	4	5	6	22	1	1	9	9	NaN	1544192550	NaN	NaN
1544192551	1.191802025	3	105	1	4	5	6	23	1	2	9	9	NaN	1544192551	NaN	NaN
1544192552	1.191700935	3	106	1	4	5	6	24	1	2	9	9	NaN	1544192552	NaN	NaN
1544192553	1.191720009	3	107	1	4	5	6	25	1	2	9	9	NaN	1544192553	NaN	NaN
1544192554	1.19174695	3	108	1	4	5	6	26	1	2	9	9	NaN	1544192554	NaN	NaN
1544192555	1.191740036	3	109	1	4	5	6	27	2	2	9	9	NaN	1544192556	NaN	NaN
1544192557	1.191659927	3	110	1	4	5	6	28	1	1	9	9	NaN	1544192557	NaN	NaN
1544192558	1.199971199	3	111	1	4	5	6	29	2	1	9	9	NaN	1544192558	NaN	NaN
1544192559	1.191749096	3	112	1	4	5	6	30	1	2	9	9	NaN	1544192559	NaN	NaN
1544192560	1.191734791	3	113	1	4	5	6	31	1	2	9	9	NaN	1544192560	NaN	NaN
1544192561	1.191826105	3	114	1	4	5	6	32	1	2	9	9	NaN	1544192562	NaN	NaN
NaN	NaN	3	115	1	4	9	6	33	3	3	NaN	NaN	NaN	NaN	NaN	NaN
1544192564	1.191813946	3	116	1	4	9	7	1	3	3	9	9	NaN	NaN	NaN	NaN
1544192565	1.199995041	3	117	1	4	9	7	2	3	3	9	9	NaN	NaN	NaN	NaN
1544192566	1.191751957	3	118	1	4	9	7	3	3	3	9	9	NaN	NaN	NaN	NaN
1544192567	1.191730976	3	119	1	4	9	7	4	3	3	9	9	NaN	NaN	NaN	NaN
1544192569	1.191793919	3	120	1	4	9	7	5	3	3	9	9	NaN	NaN	NaN	NaN
1544192570	1.191679955	3	121	1	4	9	7	6	3	3	9	9	NaN	NaN	NaN	NaN
1544192571	1.200054884	3	122	1	4	9	7	7	3	3	9	9	NaN	NaN	NaN	NaN
1544192572	1.191725016	3	123	1	4	9	7	8	3	3	9	9	NaN	NaN	NaN	NaN
1544192573	1.191743135	3	124	1	4	9	7	9	3	3	9	9	NaN	NaN	NaN	NaN
NaN	NaN	3	125	1	4	9	7	10	3	3	NaN	NaN	NaN	NaN	NaN	NaN
1544192576	1.191727161	3	126	1	4	7	8	1	2	2	9	9	NaN	1544192576	NaN	NaN
1544192577	1.208384991	3	127	1	4	7	8	2	1	2	9	9	NaN	1544192577	NaN	NaN
1544192578	1.191723108	3	128	1	4	7	8	3	1	1	9	9	NaN	1544192579	NaN	NaN
1544192580	1.191400051	3	129	1	4	7	8	4	2	1	9	9	NaN	1544192580	NaN	NaN
1544192581	1.191651106	3	130	1	4	7	8	5	2	1	9	9	NaN	1544192581	NaN	NaN
1544192582	1.191706181	3	131	1	4	7	8	6	2	2	9	9	NaN	1544192582	NaN	NaN
1544192583	1.200107098	3	132	1	4	7	8	7	1	2	9	9	NaN	1544192584	NaN	NaN
1544192584	1.191904068	3	133	1	4	7	8	8	1	1	9	9	NaN	1544192585	NaN	NaN
1544192586	1.191778898	3	134	1	4	7	8	9	2	1	9	9	NaN	1544192586	NaN	NaN
1544192587	1.19173193	3	135	1	4	7	8	10	2	1	9	9	NaN	1544192587	NaN	NaN
1544192588	1.191712141	3	136	1	4	7	8	11	1	1	9	9	NaN	1544192588	NaN	NaN
1544192589	1.208467007	3	137	1	4	7	8	12	1	2	9	9	NaN	1544192590	NaN	NaN
1544192590	1.200052023	3	138	1	4	7	8	13	2	1	9	9	NaN	1544192591	NaN	NaN
1544192592	1.200097084	3	139	1	4	7	8	14	1	2	9	9	NaN	1544192592	NaN	NaN
1544192593	1.191704035	3	140	1	4	7	8	15	2	1	9	9	NaN	1544192593	NaN	NaN
1544192594	1.191769838	3	141	1	4	7	8	16	2	1	9	9	NaN	1544192594	NaN	NaN
1544192595	1.191754103	3	142	1	4	7	8	17	1	1	9	9	NaN	1544192596	NaN	NaN
1544192596	1.191807032	3	143	1	4	7	8	18	2	2	9	9	NaN	1544192597	NaN	NaN
NaN	NaN	3	144	1	4	9	8	19	3	3	NaN	NaN	NaN	NaN	NaN	NaN
1544192599	1.191743135	3	145	1	4	9	9	1	3	3	9	9	NaN	NaN	NaN	NaN
1544192600	1.191756964	3	146	1	4	9	9	2	3	3	9	9	NaN	NaN	NaN	NaN
1544192601	1.192930937	3	147	1	4	9	9	3	3	3	9	9	NaN	NaN	NaN	NaN
1544192603	1.191558123	3	148	1	4	9	9	4	3	3	9	9	NaN	NaN	NaN	NaN
1544192604	1.191741943	3	149	1	4	9	9	5	3	3	9	9	NaN	NaN	NaN	NaN
1544192605	1.191745043	3	150	1	4	9	9	6	3	3	9	9	NaN	NaN	NaN	NaN
1544192606	1.19175005	3	151	1	4	9	9	7	3	3	9	9	NaN	NaN	NaN	NaN
1544192607	1.19182992	3	152	1	4	9	9	8	3	3	9	9	NaN	NaN	NaN	NaN
1544192609	1.191665173	3	153	1	4	9	9	9	3	3	9	9	NaN	NaN	NaN	NaN
NaN	NaN	3	154	1	4	9	9	10	3	3	NaN	NaN	NaN	NaN	NaN	NaN
