onset	duration	run_number	trial_number	att_task	fix_direction	bar_period	bar_direction	bar_step	fix_noise_ori	stim_noise_ori	fix_stair_val	stim_stair_val	response_val	probe_time	reaction_time
1545048490	1.199604034	5	1	1	1	9	1	1	3	3	4	7	n/a	n/a	n/a
1545048491	1.191705942	5	2	1	1	9	1	2	3	3	4	7	n/a	n/a	n/a
1545048493	1.191681862	5	3	1	1	9	1	3	3	3	4	7	n/a	n/a	n/a
1545048494	1.191610098	5	4	1	1	9	1	4	3	3	4	7	n/a	n/a	n/a
1545048495	1.191727161	5	5	1	1	9	1	5	3	3	4	7	n/a	n/a	n/a
1545048496	1.191734076	5	6	1	1	9	1	6	3	3	4	7	n/a	n/a	n/a
1545048497	1.191715002	5	7	1	1	9	1	7	3	3	4	7	n/a	n/a	n/a
1545048499	1.191740036	5	8	1	1	9	1	8	3	3	4	7	n/a	n/a	n/a
1545048500	1.191833019	5	9	1	1	9	1	9	3	3	4	7	n/a	n/a	n/a
1545048501	1.191931009	5	10	1	1	9	1	10	3	3	4	7	n/a	n/a	n/a
1545048502	1.190798044	5	11	1	1	1	2	1	1	2	4	7	n/a	1545048503	n/a
1545048503	1.19194293	5	12	1	1	1	2	2	1	2	4	7	n/a	1545048504	n/a
1545048505	1.200026989	5	13	1	1	1	2	3	1	2	4	7	n/a	1545048505	n/a
1545048506	1.191654921	5	14	1	1	1	2	4	2	1	4	7	n/a	1545048506	n/a
1545048507	1.191414118	5	15	1	1	1	2	5	1	1	4	7	n/a	1545048507	n/a
1545048508	1.19162488	5	16	1	1	1	2	6	1	2	4	7	n/a	1545048509	n/a
1545048509	1.191726208	5	17	1	1	1	2	7	1	2	4	7	n/a	1545048510	n/a
1545048511	1.191689014	5	18	1	1	1	2	8	2	2	4	7	n/a	1545048511	n/a
1545048512	1.191689014	5	19	1	1	1	2	9	2	2	4	7	n/a	1545048512	n/a
1545048513	1.191717863	5	20	1	1	1	2	10	2	2	4	7	n/a	1545048513	n/a
1545048514	1.191673994	5	21	1	1	1	2	11	2	2	4	7	n/a	1545048515	n/a
1545048515	1.191667795	5	22	1	1	1	2	12	2	1	4	7	n/a	1545048516	n/a
1545048517	1.191504002	5	23	1	1	1	2	13	1	1	4	7	n/a	1545048517	n/a
1545048518	1.191411972	5	24	1	1	1	2	14	2	2	4	7	n/a	1545048518	n/a
1545048519	1.191748857	5	25	1	1	1	2	15	1	1	4	7	n/a	1545048519	n/a
1545048520	1.191661119	5	26	1	1	1	2	16	1	2	4	7	n/a	1545048521	n/a
1545048521	1.191636086	5	27	1	1	1	2	17	2	1	4	7	n/a	1545048522	n/a
1545048523	1.191822052	5	28	1	1	1	2	18	2	2	4	7	n/a	1545048523	n/a
1545048524	1.191376925	5	29	1	1	9	3	1	3	3	4	7	n/a	n/a	n/a
1545048525	1.191493988	5	30	1	1	9	3	2	3	3	4	7	n/a	n/a	n/a
1545048526	1.191792011	5	31	1	1	9	3	3	3	3	4	7	n/a	n/a	n/a
1545048527	1.191552162	5	32	1	1	9	3	4	3	3	4	7	n/a	n/a	n/a
1545048529	1.191610098	5	33	1	1	9	3	5	3	3	4	7	n/a	n/a	n/a
1545048530	1.191677094	5	34	1	1	9	3	6	3	3	4	7	n/a	n/a	n/a
1545048531	1.191685915	5	35	1	1	9	3	7	3	3	4	7	n/a	n/a	n/a
1545048532	1.191563129	5	36	1	1	9	3	8	3	3	4	7	n/a	n/a	n/a
1545048533	1.191718102	5	37	1	1	9	3	9	3	3	4	7	n/a	n/a	n/a
1545048535	1.191649914	5	38	1	1	9	3	10	3	3	4	7	n/a	n/a	n/a
1545048536	1.191637993	5	39	1	1	5	4	1	2	2	4	7	n/a	1545048536	n/a
1545048537	1.19174099	5	40	1	1	5	4	2	2	2	4	7	n/a	1545048537	n/a
1545048538	1.191514015	5	41	1	1	5	4	3	2	1	4	7	n/a	1545048539	n/a
1545048539	1.19162488	5	42	1	1	5	4	4	2	1	4	7	n/a	1545048540	n/a
1545048541	1.200028896	5	43	1	1	5	4	5	1	1	4	7	n/a	1545048541	n/a
1545048542	1.191653967	5	44	1	1	5	4	6	1	1	4	7	n/a	1545048542	n/a
1545048543	1.200011015	5	45	1	1	5	4	7	1	2	4	7	n/a	1545048543	n/a
1545048544	1.191640854	5	46	1	1	5	4	8	1	2	4	7	n/a	1545048545	n/a
1545048545	1.191659927	5	47	1	1	5	4	9	1	1	4	7	n/a	1545048546	n/a
1545048547	1.191716909	5	48	1	1	5	4	10	2	2	4	7	n/a	1545048547	n/a
1545048548	1.191711903	5	49	1	1	5	4	11	2	1	4	7	n/a	1545048548	n/a
1545048549	1.19178009	5	50	1	1	5	4	12	2	1	4	7	n/a	1545048549	n/a
1545048550	1.199990034	5	51	1	1	5	4	13	2	1	4	7	n/a	1545048551	n/a
1545048551	1.200169086	5	52	1	1	5	4	14	1	1	4	7	n/a	1545048552	n/a
1545048553	1.200010061	5	53	1	1	5	4	15	1	1	4	7	n/a	1545048553	n/a
1545048554	1.200214148	5	54	1	1	5	4	16	1	2	4	7	n/a	1545048554	n/a
1545048555	1.191484928	5	55	1	1	5	4	17	1	2	4	7	n/a	1545048555	n/a
1545048556	1.191681862	5	56	1	1	5	4	18	2	1	4	7	n/a	1545048557	n/a
1545048557	1.191715956	5	57	1	1	9	5	1	3	3	4	7	n/a	n/a	n/a
1545048559	1.191718817	5	58	1	1	9	5	2	3	3	4	7	n/a	n/a	n/a
1545048560	1.191706896	5	59	1	1	9	5	3	3	3	4	7	n/a	n/a	n/a
1545048561	1.200009108	5	60	1	1	9	5	4	3	3	4	7	n/a	n/a	n/a
1545048562	1.191714048	5	61	1	1	9	5	5	3	3	4	7	n/a	n/a	n/a
1545048564	1.191675901	5	62	1	1	9	5	6	3	3	4	7	n/a	n/a	n/a
1545048565	1.191514015	5	63	1	1	9	5	7	3	3	4	7	n/a	n/a	n/a
1545048566	1.191717863	5	64	1	1	9	5	8	3	3	4	7	n/a	n/a	n/a
1545048567	1.191684961	5	65	1	1	9	5	9	3	3	4	7	n/a	n/a	n/a
1545048568	1.191493988	5	66	1	1	9	5	10	3	3	4	7	n/a	n/a	n/a
1545048570	1.191781044	5	67	1	1	1	6	1	2	1	4	7	n/a	1545048570	n/a
1545048571	1.191729069	5	68	1	1	1	6	2	2	2	4	7	n/a	1545048571	n/a
1545048572	1.191718102	5	69	1	1	1	6	3	2	1	4	7	n/a	1545048572	n/a
1545048573	1.191700935	5	70	1	1	1	6	4	1	2	4	7	n/a	1545048573	n/a
1545048574	1.19170785	5	71	1	1	1	6	5	2	1	4	7	n/a	1545048575	n/a
1545048576	1.191658974	5	72	1	1	1	6	6	1	2	4	7	n/a	1545048576	n/a
1545048577	1.191684008	5	73	1	1	1	6	7	2	2	4	7	n/a	1545048577	n/a
1545048578	1.191830873	5	74	1	1	1	6	8	1	1	4	7	n/a	1545048578	n/a
1545048579	1.191890955	5	75	1	1	1	6	9	2	1	4	7	n/a	1545048579	n/a
1545048580	1.191701174	5	76	1	1	1	6	10	1	2	4	7	n/a	1545048581	n/a
1545048582	1.200018167	5	77	1	1	1	6	11	1	2	4	7	n/a	1545048582	n/a
1545048583	1.191551924	5	78	1	1	1	6	12	1	2	4	7	n/a	1545048583	n/a
1545048584	1.200042963	5	79	1	1	1	6	13	2	1	4	7	n/a	1545048584	n/a
1545048585	1.191635132	5	80	1	1	1	6	14	1	1	4	7	n/a	1545048585	n/a
1545048586	1.191673994	5	81	1	1	1	6	15	2	1	4	7	n/a	1545048587	n/a
1545048588	1.191673994	5	82	1	1	1	6	16	1	1	4	7	n/a	1545048588	n/a
1545048589	1.191653013	5	83	1	1	1	6	17	1	2	4	7	n/a	1545048589	n/a
1545048590	1.191623926	5	84	1	1	1	6	18	1	1	4	7	n/a	1545048590	n/a
1545048591	1.191891193	5	85	1	1	9	7	1	3	3	4	7	n/a	n/a	n/a
1545048592	1.191834927	5	86	1	1	9	7	2	3	3	4	7	n/a	n/a	n/a
1545048594	1.191767931	5	87	1	1	9	7	3	3	3	4	7	n/a	n/a	n/a
1545048595	1.191207886	5	88	1	1	9	7	4	3	3	4	7	n/a	n/a	n/a
1545048596	1.19164896	5	89	1	1	9	7	5	3	3	4	7	n/a	n/a	n/a
1545048597	1.191802025	5	90	1	1	9	7	6	3	3	4	7	n/a	n/a	n/a
1545048598	1.191647053	5	91	1	1	9	7	7	3	3	4	7	n/a	n/a	n/a
1545048600	1.191743135	5	92	1	1	9	7	8	3	3	4	7	n/a	n/a	n/a
1545048601	1.191694021	5	93	1	1	9	7	9	3	3	4	7	n/a	n/a	n/a
1545048602	1.191872835	5	94	1	1	9	7	10	3	3	4	7	n/a	n/a	n/a
1545048603	1.191435099	5	95	1	1	5	8	1	2	1	4	7	n/a	1545048603	n/a
1545048604	1.191604137	5	96	1	1	5	8	2	1	1	4	7	n/a	1545048605	n/a
1545048606	1.191580057	5	97	1	1	5	8	3	1	1	4	7	n/a	1545048606	n/a
1545048607	1.191692829	5	98	1	1	5	8	4	2	2	4	7	n/a	1545048607	n/a
1545048608	1.191653967	5	99	1	1	5	8	5	1	1	4	7	n/a	1545048608	n/a
1545048609	1.191758156	5	100	1	1	5	8	6	2	1	4	7	n/a	1545048609	n/a
1545048610	1.191812038	5	101	1	1	5	8	7	2	1	4	7	n/a	1545048611	n/a
1545048612	1.191630125	5	102	1	1	5	8	8	2	2	4	7	n/a	1545048612	n/a
1545048613	1.191687822	5	103	1	1	5	8	9	1	2	4	7	n/a	1545048613	n/a
1545048614	1.191618919	5	104	1	1	5	8	10	2	2	4	7	n/a	1545048614	n/a
1545048615	1.191669941	5	105	1	1	5	8	11	1	1	4	7	n/a	1545048615	n/a
1545048616	1.191534042	5	106	1	1	5	8	12	2	2	4	7	n/a	1545048617	n/a
1545048618	1.191651106	5	107	1	1	5	8	13	2	1	4	7	n/a	1545048618	n/a
1545048619	1.191674948	5	108	1	1	5	8	14	1	2	4	7	n/a	1545048619	n/a
1545048620	1.191686869	5	109	1	1	5	8	15	1	2	4	7	n/a	1545048620	n/a
1545048621	1.191685915	5	110	1	1	5	8	16	1	2	4	7	n/a	1545048621	n/a
1545048622	1.191680908	5	111	1	1	5	8	17	1	1	4	7	n/a	1545048623	n/a
1545048624	1.191663027	5	112	1	1	5	8	18	1	2	4	7	n/a	1545048624	n/a
1545048625	1.200012207	5	113	1	1	9	9	1	3	3	4	7	n/a	n/a	n/a
1545048626	1.191743851	5	114	1	1	9	9	2	3	3	4	7	n/a	n/a	n/a
1545048627	1.191636086	5	115	1	1	9	9	3	3	3	4	7	n/a	n/a	n/a
1545048628	1.191606998	5	116	1	1	9	9	4	3	3	4	7	n/a	n/a	n/a
1545048630	1.191495895	5	117	1	1	9	9	5	3	3	4	7	n/a	n/a	n/a
1545048631	1.191550016	5	118	1	1	9	9	6	3	3	4	7	n/a	n/a	n/a
1545048632	1.191745043	5	119	1	1	9	9	7	3	3	4	7	n/a	n/a	n/a
1545048633	1.191644907	5	120	1	1	9	9	8	3	3	4	7	n/a	n/a	n/a
1545048634	1.191637039	5	121	1	1	9	9	9	3	3	4	7	n/a	n/a	n/a
1545048636	1.19174099	5	122	1	1	9	9	10	3	3	4	7	n/a	n/a	n/a
