onset	duration	run_number	trial_number	att_task	fix_direction	bar_period	bar_direction	bar_step	fix_noise_ori	stim_noise_ori	fix_stair_val	stim_stair_val	response_val	probe_time	reaction_time
1545049582	1.199651957	10	1	2	3	9	1	1	3	3	4	7	n/a	n/a	n/a
1545049583	1.191658974	10	2	2	3	9	1	2	3	3	4	7	n/a	n/a	n/a
1545049584	1.191658974	10	3	2	3	9	1	3	3	3	4	7	n/a	n/a	n/a
1545049585	1.191698074	10	4	2	3	9	1	4	3	3	4	7	n/a	n/a	n/a
1545049586	1.191719055	10	5	2	3	9	1	5	3	3	4	7	n/a	n/a	n/a
1545049588	1.191658974	10	6	2	3	9	1	6	3	3	4	7	n/a	n/a	n/a
1545049589	1.191797972	10	7	2	3	9	1	7	3	3	4	7	n/a	n/a	n/a
1545049590	1.191646099	10	8	2	3	9	1	8	3	3	4	7	n/a	n/a	n/a
1545049591	1.191674948	10	9	2	3	9	1	9	3	3	4	7	n/a	n/a	n/a
1545049592	1.191681862	10	10	2	3	9	1	10	3	3	4	7	n/a	n/a	n/a
1545049594	1.19055891	10	11	2	3	1	2	1	2	2	4	7	n/a	1545049594	n/a
1545049595	1.191716909	10	12	2	3	1	2	2	1	2	4	7	n/a	1545049595	n/a
1545049596	1.1916852	10	13	2	3	1	2	3	1	1	4	7	n/a	1545049596	n/a
1545049597	1.191682816	10	14	2	3	1	2	4	2	1	4	7	n/a	1545049598	n/a
1545049598	1.191677809	10	15	2	3	1	2	5	2	1	4	7	n/a	1545049599	n/a
1545049600	1.191626787	10	16	2	3	1	2	6	2	1	4	7	n/a	1545049600	n/a
1545049601	1.191745043	10	17	2	3	1	2	7	1	1	4	7	n/a	1545049601	n/a
1545049602	1.191654921	10	18	2	3	1	2	8	2	2	4	7	n/a	1545049602	n/a
1545049603	1.191679001	10	19	2	3	1	2	9	1	1	4	7	n/a	1545049604	n/a
1545049604	1.1916821	10	20	2	3	1	2	10	1	2	4	7	n/a	1545049605	n/a
1545049606	1.1916821	10	21	2	3	1	2	11	1	1	4	7	n/a	1545049606	n/a
1545049607	1.191766024	10	22	2	3	1	2	12	1	2	4	7	n/a	1545049607	n/a
1545049608	1.191683054	10	23	2	3	1	2	13	2	1	4	7	n/a	1545049608	n/a
1545049609	1.191734076	10	24	2	3	1	2	14	1	2	4	7	n/a	1545049610	n/a
1545049610	1.191639185	10	25	2	3	1	2	15	2	1	4	7	n/a	1545049611	n/a
1545049612	1.191623926	10	26	2	3	1	2	16	1	2	4	7	n/a	1545049612	n/a
1545049613	1.191744804	10	27	2	3	1	2	17	1	2	4	7	n/a	1545049613	n/a
1545049614	1.191720009	10	28	2	3	1	2	18	2	1	4	7	n/a	1545049614	n/a
1545049615	1.19143796	10	29	2	3	9	3	1	3	3	4	7	n/a	n/a	n/a
1545049616	1.191586018	10	30	2	3	9	3	2	3	3	4	7	n/a	n/a	n/a
1545049618	1.191679001	10	31	2	3	9	3	3	3	3	4	7	n/a	n/a	n/a
1545049619	1.191717863	10	32	2	3	9	3	4	3	3	4	7	n/a	n/a	n/a
1545049620	1.191685915	10	33	2	3	9	3	5	3	3	4	7	n/a	n/a	n/a
1545049621	1.191715002	10	34	2	3	9	3	6	3	3	4	7	n/a	n/a	n/a
1545049622	1.191701889	10	35	2	3	9	3	7	3	3	4	7	n/a	n/a	n/a
1545049624	1.191663027	10	36	2	3	9	3	8	3	3	4	7	n/a	n/a	n/a
1545049625	1.191776037	10	37	2	3	9	3	9	3	3	4	7	n/a	n/a	n/a
1545049626	1.191683054	10	38	2	3	9	3	10	3	3	4	7	n/a	n/a	n/a
1545049627	1.191824913	10	39	2	3	5	4	1	1	1	4	7	n/a	1545049628	n/a
1545049628	1.191699982	10	40	2	3	5	4	2	1	1	4	7	n/a	1545049629	n/a
1545049630	1.191622972	10	41	2	3	5	4	3	1	1	4	7	n/a	1545049630	n/a
1545049631	1.191679955	10	42	2	3	5	4	4	2	2	4	7	n/a	1545049631	n/a
1545049632	1.191684008	10	43	2	3	5	4	5	2	2	4	7	n/a	1545049632	n/a
1545049633	1.191705942	10	44	2	3	5	4	6	1	2	4	7	n/a	1545049634	n/a
1545049634	1.191630125	10	45	2	3	5	4	7	2	1	4	7	n/a	1545049635	n/a
1545049636	1.191658974	10	46	2	3	5	4	8	1	2	4	7	n/a	1545049636	n/a
1545049637	1.191674948	10	47	2	3	5	4	9	2	2	4	7	n/a	1545049637	n/a
1545049638	1.191674948	10	48	2	3	5	4	10	1	2	4	7	n/a	1545049638	n/a
1545049639	1.191685915	10	49	2	3	5	4	11	1	2	4	7	n/a	1545049640	n/a
1545049640	1.191657066	10	50	2	3	5	4	12	1	1	4	7	n/a	1545049641	n/a
1545049642	1.191751957	10	51	2	3	5	4	13	2	2	4	7	n/a	1545049642	n/a
1545049643	1.1916821	10	52	2	3	5	4	14	1	1	4	7	n/a	1545049643	n/a
1545049644	1.191676855	10	53	2	3	5	4	15	2	1	4	7	n/a	1545049644	n/a
1545049645	1.191734076	10	54	2	3	5	4	16	1	2	4	7	n/a	1545049646	n/a
1545049646	1.19165206	10	55	2	3	5	4	17	1	2	4	7	n/a	1545049647	n/a
1545049648	1.191782951	10	56	2	3	5	4	18	1	1	4	7	n/a	1545049648	n/a
1545049649	1.191742897	10	57	2	3	9	5	1	3	3	4	7	n/a	n/a	n/a
1545049650	1.191673994	10	58	2	3	9	5	2	3	3	4	7	n/a	n/a	n/a
1545049651	1.191699028	10	59	2	3	9	5	3	3	3	4	7	n/a	n/a	n/a
1545049652	1.191603899	10	60	2	3	9	5	4	3	3	4	7	n/a	n/a	n/a
1545049654	1.191766977	10	61	2	3	9	5	5	3	3	4	7	n/a	n/a	n/a
1545049655	1.191672087	10	62	2	3	9	5	6	3	3	4	7	n/a	n/a	n/a
1545049656	1.191671848	10	63	2	3	9	5	7	3	3	4	7	n/a	n/a	n/a
1545049657	1.191656828	10	64	2	3	9	5	8	3	3	4	7	n/a	n/a	n/a
1545049658	1.191649914	10	65	2	3	9	5	9	3	3	4	7	n/a	n/a	n/a
1545049660	1.191651821	10	66	2	3	9	5	10	3	3	4	7	n/a	n/a	n/a
1545049661	1.19175601	10	67	2	3	1	6	1	1	2	4	7	n/a	1545049661	n/a
1545049662	1.191704988	10	68	2	3	1	6	2	1	2	4	7	n/a	1545049662	n/a
1545049663	1.191678047	10	69	2	3	1	6	3	2	1	4	7	n/a	1545049664	n/a
1545049664	1.191674948	10	70	2	3	1	6	4	2	1	4	7	n/a	1545049665	n/a
1545049666	1.191771984	10	71	2	3	1	6	5	2	2	4	7	n/a	1545049666	n/a
1545049667	1.191704035	10	72	2	3	1	6	6	1	1	4	7	n/a	1545049667	n/a
1545049668	1.191709042	10	73	2	3	1	6	7	2	2	4	7	n/a	1545049668	n/a
1545049669	1.191724062	10	74	2	3	1	6	8	2	2	4	7	n/a	1545049670	n/a
1545049670	1.191680908	10	75	2	3	1	6	9	1	2	4	7	n/a	1545049671	n/a
1545049672	1.199981928	10	76	2	3	1	6	10	2	2	4	7	n/a	1545049672	n/a
1545049673	1.191674948	10	77	2	3	1	6	11	1	2	4	7	n/a	1545049673	n/a
1545049674	1.191706181	10	78	2	3	1	6	12	1	1	4	7	n/a	1545049674	n/a
1545049675	1.191710949	10	79	2	3	1	6	13	2	2	4	7	n/a	1545049676	n/a
1545049676	1.191587925	10	80	2	3	1	6	14	1	2	4	7	n/a	1545049677	n/a
1545049678	1.191675186	10	81	2	3	1	6	15	1	1	4	7	n/a	1545049678	n/a
1545049679	1.191680193	10	82	2	3	1	6	16	2	1	4	7	n/a	1545049679	n/a
1545049680	1.191797018	10	83	2	3	1	6	17	1	1	4	7	n/a	1545049680	n/a
1545049681	1.191726923	10	84	2	3	1	6	18	1	2	4	7	n/a	1545049682	n/a
1545049682	1.19144702	10	85	2	3	9	7	1	3	3	4	7	n/a	n/a	n/a
1545049684	1.191770077	10	86	2	3	9	7	2	3	3	4	7	n/a	n/a	n/a
1545049685	1.191705942	10	87	2	3	9	7	3	3	3	4	7	n/a	n/a	n/a
1545049686	1.191673994	10	88	2	3	9	7	4	3	3	4	7	n/a	n/a	n/a
1545049687	1.191720963	10	89	2	3	9	7	5	3	3	4	7	n/a	n/a	n/a
1545049688	1.191677094	10	90	2	3	9	7	6	3	3	4	7	n/a	n/a	n/a
1545049690	1.19177103	10	91	2	3	9	7	7	3	3	4	7	n/a	n/a	n/a
1545049691	1.191695929	10	92	2	3	9	7	8	3	3	4	7	n/a	n/a	n/a
1545049692	1.191656113	10	93	2	3	9	7	9	3	3	4	7	n/a	n/a	n/a
1545049693	1.191639185	10	94	2	3	9	7	10	3	3	4	7	n/a	n/a	n/a
1545049694	1.191699982	10	95	2	3	5	8	1	2	1	4	7	n/a	1545049695	n/a
1545049696	1.191676855	10	96	2	3	5	8	2	1	2	4	7	n/a	1545049696	n/a
1545049697	1.191680908	10	97	2	3	5	8	3	2	2	4	7	n/a	1545049697	n/a
1545049698	1.191675901	10	98	2	3	5	8	4	2	2	4	7	n/a	1545049698	n/a
1545049699	1.191641808	10	99	2	3	5	8	5	2	1	4	7	n/a	1545049700	n/a
1545049700	1.191745043	10	100	2	3	5	8	6	2	2	4	7	n/a	1545049701	n/a
1545049702	1.191673994	10	101	2	3	5	8	7	1	2	4	7	n/a	1545049702	n/a
1545049703	1.191698074	10	102	2	3	5	8	8	2	1	4	7	n/a	1545049703	n/a
1545049704	1.191679001	10	103	2	3	5	8	9	1	1	4	7	n/a	1545049704	n/a
1545049705	1.191643	10	104	2	3	5	8	10	1	2	4	7	n/a	1545049706	n/a
1545049706	1.191739082	10	105	2	3	5	8	11	1	2	4	7	n/a	1545049707	n/a
1545049708	1.191696882	10	106	2	3	5	8	12	2	1	4	7	n/a	1545049708	n/a
1545049709	1.191675186	10	107	2	3	5	8	13	2	2	4	7	n/a	1545049709	n/a
1545049710	1.191719055	10	108	2	3	5	8	14	2	2	4	7	n/a	1545049710	n/a
1545049711	1.191605091	10	109	2	3	5	8	15	2	2	4	7	n/a	1545049712	n/a
1545049712	1.19175005	10	110	2	3	5	8	16	1	1	4	7	n/a	1545049713	n/a
1545049714	1.191676855	10	111	2	3	5	8	17	1	1	4	7	n/a	1545049714	n/a
1545049715	1.191681862	10	112	2	3	5	8	18	1	2	4	7	n/a	1545049715	n/a
1545049716	1.191755056	10	113	2	3	9	9	1	3	3	4	7	n/a	n/a	n/a
1545049717	1.191678047	10	114	2	3	9	9	2	3	3	4	7	n/a	n/a	n/a
1545049718	1.191689968	10	115	2	3	9	9	3	3	3	4	7	n/a	n/a	n/a
1545049720	1.191794872	10	116	2	3	9	9	4	3	3	4	7	n/a	n/a	n/a
1545049721	1.191706181	10	117	2	3	9	9	5	3	3	4	7	n/a	n/a	n/a
1545049722	1.191675901	10	118	2	3	9	9	6	3	3	4	7	n/a	n/a	n/a
1545049723	1.191674948	10	119	2	3	9	9	7	3	3	4	7	n/a	n/a	n/a
1545049724	1.191680908	10	120	2	3	9	9	8	3	3	4	7	n/a	n/a	n/a
1545049726	1.191785097	10	121	2	3	9	9	9	3	3	4	7	n/a	n/a	n/a
1545049727	1.191704035	10	122	2	3	9	9	10	3	3	4	7	n/a	n/a	n/a
