onset	duration	run_number	trial_number	att_task	fix_direction	bar_direction	bar_period	bar_step	fix_noise_ori	stim_noise_ori	fix_stair_val	stim_stair_val	response_val	probe_time	reaction_time
1559733311	1.291493893	1	1	1	4	9	1	1	3	3	9	9	n/a	n/a	n/a
1559733312	1.291831017	1	2	1	4	9	1	2	3	3	9	9	n/a	n/a	n/a
1559733313	1.291665077	1	3	1	4	9	1	3	3	3	9	9	n/a	n/a	n/a
1559733315	1.291675806	1	4	1	4	9	1	4	3	3	9	9	n/a	n/a	n/a
1559733316	1.291596889	1	5	1	4	9	1	5	3	3	9	9	n/a	n/a	n/a
1559733317	1.291679144	1	6	1	4	9	1	6	3	3	9	9	n/a	n/a	n/a
1559733319	1.291689873	1	7	1	4	9	1	7	3	3	9	9	n/a	n/a	n/a
1559733320	1.291680098	1	8	1	4	9	1	8	3	3	9	9	n/a	n/a	n/a
1559733321	1.291657925	1	9	1	4	9	1	9	3	3	9	9	n/a	n/a	n/a
1559733323	1.291568995	1	10	1	4	9	1	10	3	3	9	9	n/a	n/a	n/a
1559733324	1.298964977	1	11	1	4	1	2	1	1	2	9	9	n/a	1559733324	n/a
1559733325	1.291650057	1	12	1	4	1	2	2	1	2	9	9	n/a	1559733325	n/a
1559733326	1.299997091	1	13	1	4	1	2	3	1	1	9	9	n/a	1559733327	n/a
1559733328	1.300012112	1	14	1	4	1	2	4	2	1	9	9	n/a	1559733328	n/a
1559733329	1.299988985	1	15	1	4	1	2	5	2	1	9	9	n/a	1559733329	n/a
1559733330	1.291657925	1	16	1	4	1	2	6	1	2	9	9	n/a	1559733331	n/a
1559733332	1.299952984	1	17	1	4	1	2	7	1	2	9	9	n/a	1559733332	n/a
1559733333	1.299997091	1	18	1	4	1	2	8	2	2	9	9	n/a	1559733333	n/a
1559733334	1.291601896	1	19	1	4	1	2	9	1	1	9	9	n/a	1559733335	n/a
1559733336	1.291786194	1	20	1	4	1	2	10	1	2	9	9	n/a	1559733336	n/a
1559733337	1.300081015	1	21	1	4	1	2	11	2	2	9	9	n/a	1559733337	n/a
1559733338	1.291739941	1	22	1	4	1	2	12	2	2	9	9	n/a	1559733339	n/a
1559733340	1.299996853	1	23	1	4	1	2	13	2	1	9	9	n/a	1559733340	n/a
1559733341	1.300043106	1	24	1	4	1	2	14	1	2	9	9	n/a	1559733341	n/a
1559733342	1.300001144	1	25	1	4	1	2	15	2	2	9	9	n/a	1559733342	n/a
1559733343	1.291650057	1	26	1	4	1	2	16	2	1	9	9	n/a	1559733344	n/a
1559733345	1.299999952	1	27	1	4	1	2	17	2	1	9	9	n/a	1559733345	n/a
1559733346	1.291666985	1	28	1	4	1	2	18	1	1	9	9	n/a	1559733346	n/a
1559733347	1.299994946	1	29	1	4	1	2	19	1	1	9	9	n/a	1559733348	n/a
1559733349	1.299992085	1	30	1	4	1	2	20	1	1	9	9	n/a	1559733349	n/a
1559733350	1.299996138	1	31	1	4	1	2	21	1	2	9	9	n/a	1559733350	n/a
1559733351	1.291700125	1	32	1	4	1	2	22	1	2	9	9	n/a	1559733352	n/a
1559733353	1.291625023	1	33	1	4	1	2	23	2	2	9	9	n/a	1559733353	n/a
1559733354	1.300060987	1	34	1	4	1	2	24	1	2	9	9	n/a	1559733354	n/a
1559733355	1.291662931	1	35	1	4	1	2	25	2	2	9	9	n/a	1559733356	n/a
1559733356	1.291688204	1	36	1	4	1	2	26	2	2	9	9	n/a	1559733357	n/a
1559733358	1.291664839	1	37	1	4	1	2	27	1	1	9	9	n/a	1559733358	n/a
1559733359	1.299988985	1	38	1	4	1	2	28	2	2	9	9	n/a	1559733359	n/a
1559733360	1.299998045	1	39	1	4	1	2	29	2	2	9	9	n/a	1559733361	n/a
1559733362	1.291665077	1	40	1	4	1	2	30	2	1	9	9	n/a	1559733362	n/a
1559733363	1.299997091	1	41	1	4	1	2	31	1	1	9	9	n/a	1559733363	n/a
1559733364	1.291604996	1	42	1	4	1	2	32	2	2	9	9	n/a	1559733365	n/a
1559733366	1.291393042	1	43	1	4	9	3	1	3	3	9	9	n/a	n/a	n/a
1559733367	1.291609049	1	44	1	4	9	3	2	3	3	9	9	n/a	n/a	n/a
1559733368	1.291661978	1	45	1	4	9	3	3	3	3	9	9	n/a	n/a	n/a
1559733369	1.29166007	1	46	1	4	9	3	4	3	3	9	9	n/a	n/a	n/a
1559733371	1.291673183	1	47	1	4	9	3	5	3	3	9	9	n/a	n/a	n/a
1559733372	1.291633129	1	48	1	4	9	3	6	3	3	9	9	n/a	n/a	n/a
1559733373	1.291633844	1	49	1	4	9	3	7	3	3	9	9	n/a	n/a	n/a
1559733375	1.291610003	1	50	1	4	9	3	8	3	3	9	9	n/a	n/a	n/a
1559733376	1.291670799	1	51	1	4	9	3	9	3	3	9	9	n/a	n/a	n/a
1559733377	1.291658878	1	52	1	4	9	3	10	3	3	9	9	n/a	n/a	n/a
1559733379	1.300089121	1	53	1	4	3	4	1	1	2	9	9	n/a	1559733379	n/a
1559733380	1.299937963	1	54	1	4	3	4	2	2	2	9	9	n/a	1559733380	n/a
1559733381	1.300009012	1	55	1	4	3	4	3	2	1	9	9	n/a	1559733382	n/a
1559733383	1.299973011	1	56	1	4	3	4	4	1	2	9	9	n/a	1559733383	n/a
1559733384	1.30002284	1	57	1	4	3	4	5	2	1	9	9	n/a	1559733384	n/a
1559733385	1.300117016	1	58	1	4	3	4	6	1	2	9	9	n/a	1559733385	n/a
1559733386	1.291661024	1	59	1	4	3	4	7	2	1	9	9	n/a	1559733387	n/a
1559733388	1.29997611	1	60	1	4	3	4	8	1	2	9	9	n/a	1559733388	n/a
1559733389	1.291670084	1	61	1	4	3	4	9	2	2	9	9	n/a	1559733389	n/a
1559733390	1.291605949	1	62	1	4	3	4	10	1	1	9	9	n/a	1559733391	n/a
1559733392	1.300072908	1	63	1	4	3	4	11	2	1	9	9	n/a	1559733392	n/a
1559733393	1.300003052	1	64	1	4	3	4	12	1	1	9	9	n/a	1559733393	n/a
1559733394	1.299994946	1	65	1	4	3	4	13	1	1	9	9	n/a	1559733395	n/a
1559733396	1.30000186	1	66	1	4	3	4	14	1	2	9	9	n/a	1559733396	n/a
1559733397	1.300016165	1	67	1	4	3	4	15	2	2	9	9	n/a	1559733397	n/a
1559733398	1.291674852	1	68	1	4	3	4	16	1	1	9	9	n/a	1559733399	n/a
1559733400	1.291661978	1	69	1	4	3	4	17	1	1	9	9	n/a	1559733400	n/a
1559733401	1.291665077	1	70	1	4	3	4	18	1	2	9	9	n/a	1559733401	n/a
1559733402	1.29173398	1	71	1	4	9	5	1	3	3	9	9	n/a	n/a	n/a
1559733403	1.291757822	1	72	1	4	9	5	2	3	3	9	9	n/a	n/a	n/a
1559733405	1.291607141	1	73	1	4	9	5	3	3	3	9	9	n/a	n/a	n/a
1559733406	1.291739941	1	74	1	4	9	5	4	3	3	9	9	n/a	n/a	n/a
1559733407	1.291667938	1	75	1	4	9	5	5	3	3	9	9	n/a	n/a	n/a
1559733409	1.291687965	1	76	1	4	9	5	6	3	3	9	9	n/a	n/a	n/a
1559733410	1.291691065	1	77	1	4	9	5	7	3	3	9	9	n/a	n/a	n/a
1559733411	1.291660786	1	78	1	4	9	5	8	3	3	9	9	n/a	n/a	n/a
1559733413	1.29169488	1	79	1	4	9	5	9	3	3	9	9	n/a	n/a	n/a
1559733414	1.291663885	1	80	1	4	9	5	10	3	3	9	9	n/a	n/a	n/a
1559733415	1.29175806	1	81	1	4	5	6	1	1	2	9	9	n/a	1559733415	n/a
1559733416	1.300024986	1	82	1	4	5	6	2	2	2	9	9	n/a	1559733417	n/a
1559733418	1.299943924	1	83	1	4	5	6	3	1	1	9	9	n/a	1559733418	n/a
1559733419	1.291603088	1	84	1	4	5	6	4	2	2	9	9	n/a	1559733419	n/a
1559733420	1.299995184	1	85	1	4	5	6	5	1	1	9	9	n/a	1559733421	n/a
1559733422	1.299941063	1	86	1	4	5	6	6	1	2	9	9	n/a	1559733422	n/a
1559733423	1.29996109	1	87	1	4	5	6	7	1	1	9	9	n/a	1559733423	n/a
1559733424	1.300079823	1	88	1	4	5	6	8	1	1	9	9	n/a	1559733425	n/a
1559733426	1.299998045	1	89	1	4	5	6	9	2	2	9	9	n/a	1559733426	n/a
1559733427	1.299977064	1	90	1	4	5	6	10	1	2	9	9	n/a	1559733427	n/a
1559733428	1.300019026	1	91	1	4	5	6	11	2	2	9	9	n/a	1559733429	n/a
1559733429	1.300004005	1	92	1	4	5	6	12	2	1	9	9	n/a	1559733430	n/a
1559733431	1.300003052	1	93	1	4	5	6	13	2	2	9	9	n/a	1559733431	n/a
1559733432	1.300002813	1	94	1	4	5	6	14	2	1	9	9	n/a	1559733432	n/a
1559733433	1.291627884	1	95	1	4	5	6	15	1	1	9	9	n/a	1559733434	n/a
1559733435	1.291589975	1	96	1	4	5	6	16	2	2	9	9	n/a	1559733435	n/a
1559733436	1.299988031	1	97	1	4	5	6	17	1	1	9	9	n/a	1559733436	n/a
1559733437	1.30001688	1	98	1	4	5	6	18	1	2	9	9	n/a	1559733438	n/a
1559733439	1.300019026	1	99	1	4	5	6	19	1	1	9	9	n/a	1559733439	n/a
1559733440	1.291644096	1	100	1	4	5	6	20	2	2	9	9	n/a	1559733440	n/a
1559733441	1.299971104	1	101	1	4	5	6	21	1	1	9	9	n/a	1559733442	n/a
1559733443	1.291653872	1	102	1	4	5	6	22	1	1	9	9	n/a	1559733443	n/a
1559733444	1.2917099	1	103	1	4	5	6	23	1	2	9	9	n/a	1559733444	n/a
1559733445	1.299973011	1	104	1	4	5	6	24	2	2	9	9	n/a	1559733445	n/a
1559733446	1.30009222	1	105	1	4	5	6	25	2	1	9	9	n/a	1559733447	n/a
1559733448	1.300061941	1	106	1	4	5	6	26	1	1	9	9	n/a	1559733448	n/a
1559733449	1.299993992	1	107	1	4	5	6	27	1	1	9	9	n/a	1559733449	n/a
1559733450	1.291666031	1	108	1	4	5	6	28	2	2	9	9	n/a	1559733451	n/a
1559733452	1.299957991	1	109	1	4	5	6	29	1	2	9	9	n/a	1559733452	n/a
1559733453	1.291606903	1	110	1	4	5	6	30	1	1	9	9	n/a	1559733453	n/a
1559733454	1.291608095	1	111	1	4	5	6	31	1	2	9	9	n/a	1559733455	n/a
1559733456	1.300023079	1	112	1	4	5	6	32	2	2	9	9	n/a	1559733456	n/a
1559733457	1.291450977	1	113	1	4	9	7	1	3	3	9	9	n/a	n/a	n/a
1559733458	1.291707993	1	114	1	4	9	7	2	3	3	9	9	n/a	n/a	n/a
1559733460	1.291652918	1	115	1	4	9	7	3	3	3	9	9	n/a	n/a	n/a
1559733461	1.291661978	1	116	1	4	9	7	4	3	3	9	9	n/a	n/a	n/a
1559733462	1.291632891	1	117	1	4	9	7	5	3	3	9	9	n/a	n/a	n/a
1559733463	1.291574955	1	118	1	4	9	7	6	3	3	9	9	n/a	n/a	n/a
1559733465	1.291746855	1	119	1	4	9	7	7	3	3	9	9	n/a	n/a	n/a
1559733466	1.291636944	1	120	1	4	9	7	8	3	3	9	9	n/a	n/a	n/a
1559733467	1.291687965	1	121	1	4	9	7	9	3	3	9	9	n/a	n/a	n/a
1559733469	1.291633129	1	122	1	4	9	7	10	3	3	9	9	n/a	n/a	n/a
1559733470	1.300055981	1	123	1	4	7	8	1	2	2	9	9	n/a	1559733470	n/a
1559733471	1.291674137	1	124	1	4	7	8	2	2	1	9	9	n/a	1559733472	n/a
1559733473	1.299998999	1	125	1	4	7	8	3	2	2	9	9	n/a	1559733473	n/a
1559733474	1.300094128	1	126	1	4	7	8	4	1	1	9	9	n/a	1559733474	n/a
1559733475	1.291619062	1	127	1	4	7	8	5	1	1	9	9	n/a	1559733475	n/a
1559733476	1.291658163	1	128	1	4	7	8	6	1	1	9	9	n/a	1559733477	n/a
1559733478	1.29163599	1	129	1	4	7	8	7	2	1	9	9	n/a	1559733478	n/a
1559733479	1.291702986	1	130	1	4	7	8	8	1	1	9	9	n/a	1559733479	n/a
1559733480	1.291669846	1	131	1	4	7	8	9	1	1	9	9	n/a	1559733481	n/a
1559733482	1.300027132	1	132	1	4	7	8	10	1	1	9	9	n/a	1559733482	n/a
1559733483	1.300010204	1	133	1	4	7	8	11	1	1	9	9	n/a	1559733483	n/a
1559733484	1.291749954	1	134	1	4	7	8	12	2	2	9	9	n/a	1559733485	n/a
1559733486	1.291671038	1	135	1	4	7	8	13	1	2	9	9	n/a	1559733486	n/a
1559733487	1.300038099	1	136	1	4	7	8	14	1	1	9	9	n/a	1559733487	n/a
1559733488	1.300027132	1	137	1	4	7	8	15	1	1	9	9	n/a	1559733489	n/a
1559733489	1.291633844	1	138	1	4	7	8	16	1	2	9	9	n/a	1559733490	n/a
1559733491	1.300055981	1	139	1	4	7	8	17	1	2	9	9	n/a	1559733491	n/a
1559733492	1.291630983	1	140	1	4	7	8	18	1	2	9	9	n/a	1559733492	n/a
1559733493	1.291763067	1	141	1	4	9	9	1	3	3	9	9	n/a	n/a	n/a
1559733495	1.291692972	1	142	1	4	9	9	2	3	3	9	9	n/a	n/a	n/a
1559733496	1.291637897	1	143	1	4	9	9	3	3	3	9	9	n/a	n/a	n/a
1559733497	1.291615963	1	144	1	4	9	9	4	3	3	9	9	n/a	n/a	n/a
1559733499	1.291664124	1	145	1	4	9	9	5	3	3	9	9	n/a	n/a	n/a
1559733500	1.291748047	1	146	1	4	9	9	6	3	3	9	9	n/a	n/a	n/a
1559733501	1.291662931	1	147	1	4	9	9	7	3	3	9	9	n/a	n/a	n/a
1559733502	1.291635036	1	148	1	4	9	9	8	3	3	9	9	n/a	n/a	n/a
1559733504	1.291735172	1	149	1	4	9	9	9	3	3	9	9	n/a	n/a	n/a
1559733505	1.291671038	1	150	1	4	9	9	10	3	3	9	9	n/a	n/a	n/a
