onset	duration	run_number	trial_number	att_task	fix_direction	bar_period	bar_direction	bar_step	fix_noise_ori	stim_noise_ori	fix_stair_val	stim_stair_val	response_val	probe_time	reaction_time
1545047594	1.191417933	2	1	2	4	9	1	1	3	3	4	9	n/a	n/a	n/a
1545047595	1.191705227	2	2	2	4	9	1	2	3	3	4	9	n/a	n/a	n/a
1545047596	1.191781998	2	3	2	4	9	1	3	3	3	4	9	n/a	n/a	n/a
1545047597	1.191508055	2	4	2	4	9	1	4	3	3	4	9	n/a	n/a	n/a
1545047598	1.19148016	2	5	2	4	9	1	5	3	3	4	9	n/a	n/a	n/a
1545047600	1.191721916	2	6	2	4	9	1	6	3	3	4	9	n/a	n/a	n/a
1545047601	1.1916821	2	7	2	4	9	1	7	3	3	4	9	n/a	n/a	n/a
1545047602	1.19170785	2	8	2	4	9	1	8	3	3	4	9	n/a	n/a	n/a
1545047603	1.191673994	2	9	2	4	9	1	9	3	3	4	9	n/a	n/a	n/a
1545047604	1.19164896	2	10	2	4	9	1	10	3	3	4	9	n/a	n/a	n/a
1545047606	1.198920012	2	11	2	4	1	2	1	1	2	4	8	1	1545047606	0.7251498699
1545047607	1.191640854	2	12	2	4	1	2	2	1	2	4	8	n/a	1545047607	n/a
1545047608	1.199969053	2	13	2	4	1	2	3	2	1	4	8	1	1545047608	0.5753629208
1545047609	1.199962139	2	14	2	4	1	2	4	1	1	4	8	n/a	1545047610	n/a
1545047611	1.191823959	2	15	2	4	1	2	5	1	1	4	8	n/a	1545047611	n/a
1545047612	1.200016975	2	16	2	4	1	2	6	2	2	4	8	n/a	1545047612	n/a
1545047613	1.200219154	2	17	2	4	1	2	7	1	2	4	8	1	1545047613	0.7919268608
1545047614	1.200088024	2	18	2	4	1	2	8	2	1	4	7	1	1545047614	0.8085517883
1545047615	1.199993134	2	19	2	4	1	2	9	2	2	4	7	1	1545047616	0.7004699707
1545047617	1.199986219	2	20	2	4	1	2	10	1	2	4	7	1	1545047617	0.600538969
1545047618	1.199924946	2	21	2	4	1	2	11	1	2	4	6	1	1545047618	0.6343209743
1545047619	1.199964046	2	22	2	4	1	2	12	2	1	4	7	0	1545047619	0.7834320068
1545047620	1.20015502	2	23	2	4	1	2	13	1	2	4	7	1	1545047620	0.7670259476
1545047621	1.200103998	2	24	2	4	1	2	14	1	2	4	7	1	1545047622	0.7170000076
1545047623	1.191572189	2	25	2	4	1	2	15	1	2	4	7	0	1545047623	0.9007298946
1545047624	1.191713095	2	26	2	4	1	2	16	2	2	4	8	n/a	1545047624	n/a
1545047625	1.200052023	2	27	2	4	1	2	17	2	1	4	8	n/a	1545047625	n/a
1545047626	1.191626787	2	28	2	4	1	2	18	1	1	4	9	0	1545047626	0.09184598923
1545047627	1.191664934	2	29	2	4	1	2	19	1	1	4	9	1	1545047628	0.6752359867
1545047629	1.191704035	2	30	2	4	1	2	20	2	2	4	9	1	1545047629	0.7670030594
1545047630	1.200035095	2	31	2	4	1	2	21	1	1	4	9	1	1545047630	0.876324892
1545047631	1.200004101	2	32	2	4	1	2	22	2	1	4	8	1	1545047631	0.741984129
1545047632	1.200100899	2	33	2	4	1	2	23	1	1	4	8	1	1545047633	0.6502370834
1545047633	1.191665173	2	34	2	4	1	2	24	1	2	4	7	1	1545047634	0.5585072041
1545047635	1.200196028	2	35	2	4	1	2	25	1	2	4	7	1	1545047635	0.6666891575
1545047636	1.200042009	2	36	2	4	1	2	26	1	2	4	7	n/a	1545047636	n/a
1545047637	1.200000048	2	37	2	4	1	2	27	2	2	4	7	1	1545047637	0.8000969887
1545047638	1.200005054	2	38	2	4	1	2	28	2	2	4	7	1	1545047639	0.8666059971
1545047639	1.199964046	2	39	2	4	1	2	29	1	2	4	6	n/a	1545047640	n/a
1545047641	1.200067997	2	40	2	4	1	2	30	2	2	4	6	n/a	1545047641	n/a
1545047642	1.199947119	2	41	2	4	1	2	31	1	2	4	6	n/a	1545047642	n/a
1545047643	1.200201988	2	42	2	4	1	2	32	2	2	4	6	n/a	1545047643	n/a
1545047644	1.19144392	2	43	2	4	9	3	1	3	3	4	6	n/a	n/a	n/a
1545047646	1.191454887	2	44	2	4	9	3	2	3	3	4	6	n/a	n/a	n/a
1545047647	1.191680908	2	45	2	4	9	3	3	3	3	4	6	n/a	n/a	n/a
1545047648	1.191715956	2	46	2	4	9	3	4	3	3	4	6	n/a	n/a	n/a
1545047649	1.191726923	2	47	2	4	9	3	5	3	3	4	6	n/a	n/a	n/a
1545047650	1.191627026	2	48	2	4	9	3	6	3	3	4	6	n/a	n/a	n/a
1545047652	1.191749096	2	49	2	4	9	3	7	3	3	4	6	n/a	n/a	n/a
1545047653	1.191705942	2	50	2	4	9	3	8	3	3	4	6	n/a	n/a	n/a
1545047654	1.191870928	2	51	2	4	9	3	9	3	3	4	6	n/a	n/a	n/a
1545047655	1.191859961	2	52	2	4	9	3	10	3	3	4	6	n/a	n/a	n/a
1545047656	1.200108051	2	53	2	4	3	4	1	2	2	4	6	n/a	1545047657	n/a
1545047658	1.199985981	2	54	2	4	3	4	2	2	1	4	7	0	1545047658	0.4918861389
1545047659	1.200035095	2	55	2	4	3	4	3	1	2	4	7	n/a	1545047659	n/a
1545047660	1.208435059	2	56	2	4	3	4	4	1	1	4	8	0	1545047660	0.591698885
1545047661	1.191653967	2	57	2	4	3	4	5	2	2	4	8	n/a	1545047661	n/a
1545047662	1.199800014	2	58	2	4	3	4	6	1	1	4	8	n/a	1545047663	n/a
1545047664	1.208528042	2	59	2	4	3	4	7	2	1	4	8	1	1545047664	0.7667510509
1545047665	1.199819088	2	60	2	4	3	4	8	1	1	4	8	n/a	1545047665	n/a
1545047666	1.208295107	2	61	2	4	3	4	9	1	2	4	8	1	1545047666	0.7751829624
1545047667	1.200114012	2	62	2	4	3	4	10	1	2	4	7	1	1545047667	0.8082110882
1545047668	1.208476067	2	63	2	4	3	4	11	2	1	4	7	n/a	1545047669	n/a
1545047670	1.200006008	2	64	2	4	3	4	12	2	2	4	7	n/a	1545047670	n/a
1545047671	1.208454132	2	65	2	4	3	4	13	1	1	4	7	n/a	1545047671	n/a
1545047672	1.200245142	2	66	2	4	3	4	14	2	2	4	7	n/a	1545047672	n/a
1545047673	1.208169937	2	67	2	4	3	4	15	2	2	4	7	1	1545047674	0.8833711147
1545047674	1.199939966	2	68	2	4	3	4	16	2	1	4	7	1	1545047675	0.791795969
1545047676	1.208616018	2	69	2	4	3	4	17	2	2	4	6	1	1545047676	0.6583211422
1545047677	1.191912174	2	70	2	4	3	4	18	1	2	4	7	0	1545047677	0.6251151562
1545047678	1.191656113	2	71	2	4	9	5	1	3	3	4	7	n/a	n/a	n/a
1545047679	1.191566944	2	72	2	4	9	5	2	3	3	4	7	n/a	n/a	n/a
1545047681	1.191680908	2	73	2	4	9	5	3	3	3	4	7	n/a	n/a	n/a
1545047682	1.191657066	2	74	2	4	9	5	4	3	3	4	7	n/a	n/a	n/a
1545047683	1.191781044	2	75	2	4	9	5	5	3	3	4	7	n/a	n/a	n/a
1545047684	1.191639185	2	76	2	4	9	5	6	3	3	4	7	n/a	n/a	n/a
1545047685	1.19166398	2	77	2	4	9	5	7	3	3	4	7	n/a	n/a	n/a
1545047687	1.191681862	2	78	2	4	9	5	8	3	3	4	7	n/a	n/a	n/a
1545047688	1.191680908	2	79	2	4	9	5	9	3	3	4	7	n/a	n/a	n/a
1545047689	1.191635132	2	80	2	4	9	5	10	3	3	4	7	n/a	n/a	n/a
1545047690	1.200116158	2	81	2	4	5	6	1	1	1	4	7	n/a	1545047690	n/a
1545047691	1.200042963	2	82	2	4	5	6	2	2	1	4	7	n/a	1545047692	n/a
1545047693	1.200048923	2	83	2	4	5	6	3	2	1	4	7	n/a	1545047693	n/a
1545047694	1.191521883	2	84	2	4	5	6	4	2	1	4	7	n/a	1545047694	n/a
1545047695	1.199913979	2	85	2	4	5	6	5	1	2	4	7	n/a	1545047695	n/a
1545047696	1.199828148	2	86	2	4	5	6	6	1	2	4	7	n/a	1545047696	n/a
1545047697	1.199841976	2	87	2	4	5	6	7	1	1	4	7	n/a	1545047698	n/a
1545047699	1.191501856	2	88	2	4	5	6	8	1	2	4	7	n/a	1545047699	n/a
1545047700	1.200033903	2	89	2	4	5	6	9	1	2	4	7	n/a	1545047700	n/a
1545047701	1.199965954	2	90	2	4	5	6	10	2	1	4	7	n/a	1545047701	n/a
1545047702	1.200083017	2	91	2	4	5	6	11	1	2	4	7	n/a	1545047702	n/a
1545047703	1.200114965	2	92	2	4	5	6	12	1	1	4	7	n/a	1545047704	n/a
1545047705	1.191612959	2	93	2	4	5	6	13	1	2	4	7	n/a	1545047705	n/a
1545047706	1.199999094	2	94	2	4	5	6	14	2	2	4	7	n/a	1545047706	n/a
1545047707	1.191662788	2	95	2	4	5	6	15	2	1	4	7	n/a	1545047707	n/a
1545047708	1.191674948	2	96	2	4	5	6	16	2	2	4	7	n/a	1545047709	n/a
1545047709	1.20006299	2	97	2	4	5	6	17	1	2	4	7	n/a	1545047710	n/a
1545047711	1.19994998	2	98	2	4	5	6	18	1	1	4	7	n/a	1545047711	n/a
1545047712	1.191735983	2	99	2	4	5	6	19	1	2	4	7	n/a	1545047712	n/a
1545047713	1.191748142	2	100	2	4	5	6	20	2	1	4	7	n/a	1545047713	n/a
1545047714	1.200010061	2	101	2	4	5	6	21	1	1	4	7	n/a	1545047715	n/a
1545047715	1.200026989	2	102	2	4	5	6	22	2	1	4	7	n/a	1545047716	n/a
1545047717	1.199931145	2	103	2	4	5	6	23	1	1	4	7	n/a	1545047717	n/a
1545047718	1.200176001	2	104	2	4	5	6	24	1	1	4	7	n/a	1545047718	n/a
1545047719	1.191544056	2	105	2	4	5	6	25	1	2	4	7	n/a	1545047719	n/a
1545047720	1.19156599	2	106	2	4	5	6	26	1	1	4	7	n/a	1545047721	n/a
1545047721	1.200015068	2	107	2	4	5	6	27	2	2	4	7	n/a	1545047722	n/a
1545047723	1.19998908	2	108	2	4	5	6	28	2	2	4	7	n/a	1545047723	n/a
1545047724	1.191679001	2	109	2	4	5	6	29	2	2	4	7	n/a	1545047724	n/a
1545047725	1.191811085	2	110	2	4	5	6	30	1	2	4	7	n/a	1545047725	n/a
1545047726	1.191739082	2	111	2	4	5	6	31	2	2	4	7	n/a	1545047727	n/a
1545047727	1.191671848	2	112	2	4	5	6	32	1	1	4	7	n/a	1545047728	n/a
1545047729	1.191718102	2	113	2	4	9	7	1	3	3	4	7	n/a	n/a	n/a
1545047730	1.191874981	2	114	2	4	9	7	2	3	3	4	7	n/a	n/a	n/a
1545047731	1.19193697	2	115	2	4	9	7	3	3	3	4	7	n/a	n/a	n/a
1545047732	1.191701174	2	116	2	4	9	7	4	3	3	4	7	n/a	n/a	n/a
1545047733	1.191515923	2	117	2	4	9	7	5	3	3	4	7	n/a	n/a	n/a
1545047735	1.191704035	2	118	2	4	9	7	6	3	3	4	7	n/a	n/a	n/a
1545047736	1.191686869	2	119	2	4	9	7	7	3	3	4	7	n/a	n/a	n/a
1545047737	1.191690922	2	120	2	4	9	7	8	3	3	4	7	n/a	n/a	n/a
1545047738	1.191674948	2	121	2	4	9	7	9	3	3	4	7	n/a	n/a	n/a
1545047739	1.191677809	2	122	2	4	9	7	10	3	3	4	7	n/a	n/a	n/a
1545047741	1.200119972	2	123	2	4	7	8	1	1	1	4	7	n/a	1545047741	n/a
1545047742	1.191664934	2	124	2	4	7	8	2	2	1	4	7	n/a	1545047742	n/a
1545047743	1.200019836	2	125	2	4	7	8	3	2	2	4	7	n/a	1545047743	n/a
1545047744	1.200196981	2	126	2	4	7	8	4	1	2	4	7	n/a	1545047745	n/a
1545047746	1.191943169	2	127	2	4	7	8	5	2	2	4	7	n/a	1545047746	n/a
1545047747	1.200190067	2	128	2	4	7	8	6	1	1	4	7	n/a	1545047747	n/a
1545047748	1.199939013	2	129	2	4	7	8	7	2	1	4	7	n/a	1545047748	n/a
1545047749	1.208516836	2	130	2	4	7	8	8	1	1	4	7	n/a	1545047749	n/a
1545047750	1.200201035	2	131	2	4	7	8	9	2	2	4	7	n/a	1545047751	n/a
1545047752	1.208108187	2	132	2	4	7	8	10	2	2	4	7	n/a	1545047752	n/a
1545047753	1.191504955	2	133	2	4	7	8	11	2	1	4	7	n/a	1545047753	n/a
1545047754	1.199945211	2	134	2	4	7	8	12	2	2	4	7	n/a	1545047754	n/a
1545047755	1.208186865	2	135	2	4	7	8	13	2	1	4	7	n/a	1545047755	n/a
1545047756	1.200059891	2	136	2	4	7	8	14	2	1	4	7	n/a	1545047757	n/a
1545047758	1.208370924	2	137	2	4	7	8	15	1	2	4	7	n/a	1545047758	n/a
1545047759	1.191426039	2	138	2	4	7	8	16	1	2	4	7	n/a	1545047759	n/a
1545047760	1.199928045	2	139	2	4	7	8	17	2	2	4	7	n/a	1545047760	n/a
1545047761	1.199886799	2	140	2	4	7	8	18	2	1	4	7	n/a	1545047762	n/a
1545047762	1.191581964	2	141	2	4	9	9	1	3	3	4	7	n/a	n/a	n/a
1545047764	1.19175601	2	142	2	4	9	9	2	3	3	4	7	n/a	n/a	n/a
1545047765	1.191714048	2	143	2	4	9	9	3	3	3	4	7	n/a	n/a	n/a
1545047766	1.191680908	2	144	2	4	9	9	4	3	3	4	7	n/a	n/a	n/a
1545047767	1.191662073	2	145	2	4	9	9	5	3	3	4	7	n/a	n/a	n/a
1545047768	1.19234395	2	146	2	4	9	9	6	3	3	4	7	n/a	n/a	n/a
1545047770	1.191941977	2	147	2	4	9	9	7	3	3	4	7	n/a	n/a	n/a
1545047771	1.199927092	2	148	2	4	9	9	8	3	3	4	7	n/a	n/a	n/a
1545047772	1.191579819	2	149	2	4	9	9	9	3	3	4	7	n/a	n/a	n/a
1545047773	1.191694021	2	150	2	4	9	9	10	3	3	4	7	n/a	n/a	n/a
