onset	duration	run_number	trial_number	att_task	fix_direction	bar_direction	bar_period	bar_step	fix_noise_ori	stim_noise_ori	fix_stair_val	stim_stair_val	response_val	probe_time	reaction_time
97537.04897	15.66590008	1	1	1	4	9	1	1	3	3	15	15	n/a	n/a	n/a
97552.91772	15.45172818	1	2	1	4	9	1	2	3	3	15	15	n/a	n/a	n/a
97568.56024	16.26282588	1	3	1	4	9	1	3	3	3	15	15	n/a	n/a	n/a
97585.02055	14.97377598	1	4	1	4	9	1	4	3	3	15	15	n/a	n/a	n/a
97600.19161	15.07021975	1	5	1	4	9	1	5	3	3	15	15	n/a	n/a	n/a
97615.45081	14.86334132	1	6	1	4	9	1	6	3	3	15	15	n/a	n/a	n/a
97630.50519	15.02221988	1	7	1	4	9	1	7	3	3	15	15	n/a	n/a	n/a
97645.71408	14.68433336	1	8	1	4	9	1	8	3	3	15	15	n/a	n/a	n/a
97660.57774	14.53592771	1	9	1	4	9	1	9	3	3	15	15	n/a	n/a	n/a
97675.30038	14.71535875	1	10	1	4	9	1	10	3	3	15	15	n/a	n/a	n/a
97690.28299	15.73348136	1	11	1	4	1	2	1	1	2	15	15	n/a	97694.39709	n/a
97706.22894	16.26626519	1	12	1	4	1	2	2	2	2	15	15	n/a	97710.53049	n/a
97722.70431	15.84850496	1	13	1	4	1	2	3	2	1	15	15	n/a	97726.90193	n/a
97738.76571	15.97034884	1	14	1	4	1	2	4	1	2	15	15	n/a	97742.98946	n/a
97754.9543	15.9818958	1	15	1	4	1	2	5	1	1	15	15	n/a	97759.16862	n/a
97771.1503	15.75282955	1	16	1	4	1	2	6	1	1	15	15	n/a	97775.31616	n/a
97787.11481	15.71878918	1	17	1	4	1	2	7	1	1	15	15	n/a	97791.23336	n/a
97803.03325	15.76271311	1	18	1	4	1	2	8	2	1	15	15	1	97807.23384	2.862225149
97819.00561	15.71051091	1	19	1	4	1	2	9	2	1	15	15	n/a	97823.14206	n/a
97834.91685	15.98543966	1	20	1	4	1	2	10	2	1	15	15	n/a	97839.02968	n/a
97851.1021	16.06343213	1	21	1	4	1	2	11	2	2	15	15	n/a	97855.25472	n/a
97867.3642	15.63271732	1	22	1	4	1	2	12	2	2	15	15	n/a	97871.4976	n/a
97883.19752	15.65208569	1	23	1	4	1	2	13	1	2	15	15	n/a	97887.28207	n/a
97899.04896	15.64619468	1	24	1	4	1	2	14	2	2	15	15	n/a	97903.12659	n/a
97914.89709	15.71457463	1	25	1	4	1	2	15	2	2	15	15	n/a	97919.04139	n/a
97930.81053	15.58235263	1	26	1	4	1	2	16	1	2	15	15	n/a	97934.88164	n/a
97946.59048	15.73896285	1	27	1	4	1	2	17	1	2	15	15	n/a	97950.67789	n/a
97962.52685	15.66724343	1	28	1	4	1	2	18	2	1	15	15	n/a	97966.66349	n/a
97978.39588	15.73472007	1	29	1	4	1	2	19	2	2	15	15	n/a	97982.56488	n/a
97994.32705	15.78930389	1	30	1	4	1	2	20	1	2	15	15	n/a	97998.44249	n/a
98010.31273	15.61944543	1	31	1	4	1	2	21	1	1	15	15	n/a	98014.40989	n/a
98026.12865	15.62192073	1	32	1	4	1	2	22	2	2	15	15	n/a	98030.23476	n/a
98041.95013	15.48166715	1	33	1	4	1	2	23	2	2	15	15	n/a	98046.028	n/a
98057.62903	15.4488947	1	34	1	4	1	2	24	1	2	15	15	n/a	98061.66098	n/a
98073.28291	15.18100194	1	35	1	4	1	2	25	2	1	15	15	n/a	98077.35292	n/a
98088.66015	15.21954351	1	36	1	4	1	2	26	2	1	15	15	n/a	98092.69505	n/a
98104.07479	15.30993639	1	37	1	4	1	2	27	1	2	15	15	n/a	98108.12601	n/a
98119.58882	15.25444053	1	38	1	4	1	2	28	2	1	15	15	n/a	98123.64327	n/a
98135.03548	15.2887002	1	39	1	4	1	2	29	2	1	15	15	n/a	98139.11369	n/a
98150.52926	15.41034298	1	40	1	4	1	2	30	2	2	15	15	n/a	98154.58625	n/a
98166.14123	15.09907925	1	41	1	4	1	2	31	2	1	15	15	n/a	98170.20791	n/a
98181.44185	14.48324987	1	42	1	4	1	2	32	2	2	15	15	n/a	98185.22191	n/a
98196.12282	13.8072117	1	43	1	4	9	3	1	3	3	15	15	n/a	n/a	n/a
98210.10419	14.00260177	1	44	1	4	9	3	2	3	3	15	15	n/a	n/a	n/a
98224.28723	13.97249653	1	45	1	4	9	3	3	3	3	15	15	n/a	n/a	n/a
98238.43624	13.8679972	1	46	1	4	9	3	4	3	3	15	15	n/a	n/a	n/a
98252.4853	13.55024541	1	47	1	4	9	3	5	3	3	15	15	n/a	n/a	n/a
98266.20069	13.56629477	1	48	1	4	9	3	6	3	3	15	15	n/a	n/a	n/a
98279.9356	13.51932194	1	49	1	4	9	3	7	3	3	15	15	n/a	n/a	n/a
98293.64098	13.43392612	1	50	1	4	9	3	8	3	3	15	15	n/a	n/a	n/a
98307.25222	13.3890748	1	51	1	4	9	3	9	3	3	15	15	n/a	n/a	n/a
98320.82048	13.59617746	1	52	1	4	9	3	10	3	3	15	15	n/a	n/a	n/a
98334.64696	15.52228509	1	53	1	4	3	4	1	1	2	15	15	n/a	98338.75372	n/a
98350.37057	17.28201197	1	54	1	4	3	4	2	1	2	15	15	n/a	98354.85479	n/a
98367.88131	17.68551149	1	55	1	4	3	4	3	2	1	15	15	n/a	98372.60761	n/a
98385.80762	17.61398945	1	56	1	4	3	4	4	1	1	15	15	n/a	98390.53635	n/a
98403.65484	17.61709651	1	57	1	4	3	4	5	1	2	15	15	n/a	98408.38859	n/a
98421.50491	17.71872946	1	58	1	4	3	4	6	1	1	15	15	n/a	98426.25739	n/a
98439.457	17.75451089	1	59	1	4	3	4	7	2	1	15	15	n/a	98444.19258	n/a
98457.44326	17.92948105	1	60	1	4	3	4	8	2	2	15	15	n/a	98462.23067	n/a
98475.61426	17.72711892	1	61	1	4	3	4	9	1	1	15	15	n/a	98480.3758	n/a
98493.5754	17.6158067	1	62	1	4	3	4	10	2	2	15	15	n/a	98498.32466	n/a
98511.42506	17.76696419	1	63	1	4	3	4	11	2	1	15	15	n/a	98516.19294	n/a
98529.42141	17.53898724	1	64	1	4	3	4	12	1	1	15	15	n/a	98534.16723	n/a
98547.19431	17.70054409	1	65	1	4	3	4	13	2	1	15	15	n/a	98551.93095	n/a
98565.12891	17.54045748	1	66	1	4	3	4	14	1	2	15	15	n/a	98569.77521	n/a
98582.90645	17.563468	1	67	1	4	3	4	15	2	1	15	15	n/a	98587.62141	n/a
98600.70026	17.60173126	1	68	1	4	3	4	16	1	2	15	15	n/a	98605.40351	n/a
98618.53532	17.46347539	1	69	1	4	3	4	17	2	1	15	15	n/a	98623.22569	n/a
98636.23753	16.24589146	1	70	1	4	3	4	18	1	2	15	15	n/a	98640.60747	n/a
98652.69168	14.04823175	1	71	1	4	9	5	1	3	3	15	15	n/a	n/a	n/a
98666.91454	14.1176183	1	72	1	4	9	5	2	3	3	15	15	n/a	n/a	n/a
98681.20004	13.90463402	1	73	1	4	9	5	3	3	3	15	15	n/a	n/a	n/a
98695.29039	14.01467513	1	74	1	4	9	5	4	3	3	15	15	n/a	n/a	n/a
98709.49177	13.8970253	1	75	1	4	9	5	5	3	3	15	15	n/a	n/a	n/a
98723.56512	13.85235817	1	76	1	4	9	5	6	3	3	15	15	n/a	n/a	n/a
98737.58542	13.74435981	1	77	1	4	9	5	7	3	3	15	15	n/a	n/a	n/a
98751.50253	13.56395534	1	78	1	4	9	5	8	3	3	15	15	n/a	n/a	n/a
98765.24356	13.38880227	1	79	1	4	9	5	9	3	3	15	15	n/a	n/a	n/a
98778.7985	13.44321825	1	80	1	4	9	5	10	3	3	15	15	n/a	n/a	n/a
98792.4462	13.94836028	1	81	1	4	5	6	1	2	1	15	15	n/a	98796.14602	n/a
98806.58212	15.41113529	1	82	1	4	5	6	2	2	2	15	15	n/a	98810.52992	n/a
98822.18851	15.39468838	1	83	1	4	5	6	3	2	2	15	15	n/a	98826.2537	n/a
98837.77649	15.24165037	1	84	1	4	5	6	4	2	1	15	15	n/a	98841.83076	n/a
98853.2252	15.261121	1	85	1	4	5	6	5	1	1	15	15	n/a	98857.31798	n/a
98868.68801	15.43159004	1	86	1	4	5	6	6	1	2	15	15	n/a	98872.7415	n/a
98884.32654	15.29743008	1	87	1	4	5	6	7	1	1	15	15	n/a	98888.42551	n/a
98899.82376	15.65088191	1	88	1	4	5	6	8	2	2	15	15	n/a	98903.91752	n/a
98915.6766	15.36774434	1	89	1	4	5	6	9	1	1	15	15	n/a	98919.74011	n/a
98931.24143	15.8070805	1	90	1	4	5	6	10	2	2	15	15	n/a	98935.34008	n/a
98947.25179	15.67302394	1	91	1	4	5	6	11	2	1	15	15	n/a	98951.35175	n/a
98963.13763	15.76199551	1	92	1	4	5	6	12	1	2	15	15	n/a	98967.23224	n/a
98979.09877	15.64721634	1	93	1	4	5	6	13	2	2	15	15	n/a	98983.21643	n/a
98994.94976	15.63142841	1	94	1	4	5	6	14	2	2	15	15	n/a	98999.05461	n/a
99010.77634	15.55083378	1	95	1	4	5	6	15	1	2	15	15	n/a	99014.88259	n/a
99026.5304	15.39377135	1	96	1	4	5	6	16	1	2	15	15	n/a	99030.60104	n/a
99042.13054	15.47811153	1	97	1	4	5	6	17	1	1	15	15	n/a	99046.31683	n/a
99057.81357	15.44170328	1	98	1	4	5	6	18	1	1	15	15	n/a	99061.93582	n/a
99073.46773	15.70055846	1	99	1	4	5	6	19	1	2	15	15	n/a	99077.61414	n/a
99089.37636	15.52433431	1	100	1	4	5	6	20	1	1	15	15	n/a	99093.50314	n/a
99105.11091	15.6529938	1	101	1	4	5	6	21	2	2	15	15	n/a	99109.18865	n/a
99120.97015	15.78147101	1	102	1	4	5	6	22	2	2	15	15	n/a	99125.13142	n/a
99136.96691	15.8130147	1	103	1	4	5	6	23	2	2	15	15	n/a	99141.08625	n/a
99152.97663	15.91228148	1	104	1	4	5	6	24	1	2	15	15	n/a	99157.20041	n/a
99169.09627	16.10792982	1	105	1	4	5	6	25	2	1	15	15	n/a	99173.33146	n/a
99185.41968	16.28167585	1	106	1	4	5	6	26	1	1	15	15	n/a	99189.79993	n/a
99201.92383	16.05053602	1	107	1	4	5	6	27	1	2	15	15	n/a	99206.13481	n/a
99218.18175	15.99788005	1	108	1	4	5	6	28	1	1	15	15	n/a	99222.42351	n/a
99234.39422	16.1618955	1	109	1	4	5	6	29	2	2	15	15	n/a	99238.68372	n/a
99250.76348	15.97474987	1	110	1	4	5	6	30	2	2	15	15	n/a	99254.96759	n/a
99266.93585	15.68359525	1	111	1	4	5	6	31	1	1	15	15	n/a	99271.08169	n/a
99282.81937	14.88525109	1	112	1	4	5	6	32	1	2	15	15	n/a	99286.72099	n/a
99297.88327	13.51339295	1	113	1	4	9	7	1	3	3	15	15	n/a	n/a	n/a
99311.56762	13.51703722	1	114	1	4	9	7	2	3	3	15	15	n/a	n/a	n/a
99325.26547	13.54611095	1	115	1	4	9	7	3	3	3	15	15	n/a	n/a	n/a
99338.98491	13.48678998	1	116	1	4	9	7	4	3	3	15	15	n/a	n/a	n/a
99352.64474	13.53901036	1	117	1	4	9	7	5	3	3	15	15	n/a	n/a	n/a
99366.368	13.51598992	1	118	1	4	9	7	6	3	3	15	15	n/a	n/a	n/a
99380.06709	13.71659539	1	119	1	4	9	7	7	3	3	15	15	n/a	n/a	n/a
99393.97272	14.04643478	1	120	1	4	9	7	8	3	3	15	15	n/a	n/a	n/a
99408.20879	13.81132736	1	121	1	4	9	7	9	3	3	15	15	n/a	n/a	n/a
99422.20749	13.94585346	1	122	1	4	9	7	10	3	3	15	15	n/a	n/a	n/a
99436.37969	16.00077724	1	123	1	4	7	8	1	2	2	15	15	n/a	99440.66624	n/a
99452.58638	17.57419711	1	124	1	4	7	8	2	1	2	15	15	n/a	99457.22768	n/a
99470.39493	17.69701253	1	125	1	4	7	8	3	1	2	15	15	n/a	99475.15992	n/a
99488.32233	17.75702816	1	126	1	4	7	8	4	1	2	15	15	n/a	99493.09257	n/a
99506.31057	17.77824804	1	127	1	4	7	8	5	1	1	15	15	n/a	99511.01825	n/a
99524.31629	17.6997309	1	128	1	4	7	8	6	2	2	15	15	n/a	99529.06419	n/a
99542.26005	17.55804946	1	129	1	4	7	8	7	2	1	15	15	n/a	99546.92689	n/a
99560.0534	17.70240328	1	130	1	4	7	8	8	2	1	15	15	n/a	99564.7721	n/a
99577.98837	17.83592169	1	131	1	4	7	8	9	2	1	15	15	n/a	99582.71944	n/a
99596.05697	17.81160136	1	132	1	4	7	8	10	1	2	15	15	n/a	99600.79079	n/a
99614.10875	17.86679935	1	133	1	4	7	8	11	1	1	15	15	n/a	99618.87476	n/a
99632.21474	17.91808054	1	134	1	4	7	8	12	2	2	15	15	n/a	99637.01105	n/a
99650.3639	17.98253706	1	135	1	4	7	8	13	1	2	15	15	n/a	99655.15458	n/a
99668.58197	17.87889088	1	136	1	4	7	8	14	1	2	15	15	n/a	99673.36396	n/a
99686.69586	18.01025294	1	137	1	4	7	8	15	2	2	15	15	n/a	99691.47791	n/a
99704.94589	17.94615575	1	138	1	4	7	8	16	2	1	15	15	n/a	99709.80056	n/a
99723.12876	17.65999331	1	139	1	4	7	8	17	2	2	15	15	n/a	99727.89348	n/a
99741.02413	15.99660691	1	140	1	4	7	8	18	2	1	15	15	n/a	99745.33064	n/a
99757.21185	13.6138749	1	141	1	4	9	9	1	3	3	15	15	n/a	n/a	n/a
99771.00548	13.54127713	1	142	1	4	9	9	2	3	3	15	15	n/a	n/a	n/a
99784.72543	13.50063107	1	143	1	4	9	9	3	3	3	15	15	n/a	n/a	n/a
99798.40547	13.53395697	1	144	1	4	9	9	4	3	3	15	15	n/a	n/a	n/a
99812.12038	13.51556415	1	145	1	4	9	9	5	3	3	15	15	n/a	n/a	n/a
99825.81169	13.53313255	1	146	1	4	9	9	6	3	3	15	15	n/a	n/a	n/a
99839.52362	13.77777519	1	147	1	4	9	9	7	3	3	15	15	n/a	n/a	n/a
99853.48723	13.70011555	1	148	1	4	9	9	8	3	3	15	15	n/a	n/a	n/a
99867.36908	13.81635114	1	149	1	4	9	9	9	3	3	15	15	n/a	n/a	n/a
99881.36887	13.8230231	1	150	1	4	9	9	10	3	3	15	15	n/a	n/a	n/a
