onset	duration	run_number	trial_number	att_task	fix_direction	bar_period	bar_direction	bar_step	fix_noise_ori	stim_noise_ori	fix_stair_val	stim_stair_val	response_val	probe_time	reaction_time
1545048275	1.191154003	4	1	2	4	9	1	1	3	3	4	7	n/a	n/a	n/a
1545048277	1.191645861	4	2	2	4	9	1	2	3	3	4	7	n/a	n/a	n/a
1545048278	1.1916399	4	3	2	4	9	1	3	3	3	4	7	n/a	n/a	n/a
1545048279	1.191499949	4	4	2	4	9	1	4	3	3	4	7	n/a	n/a	n/a
1545048280	1.191642046	4	5	2	4	9	1	5	3	3	4	7	n/a	n/a	n/a
1545048281	1.191751003	4	6	2	4	9	1	6	3	3	4	7	n/a	n/a	n/a
1545048283	1.191675901	4	7	2	4	9	1	7	3	3	4	7	n/a	n/a	n/a
1545048284	1.191684961	4	8	2	4	9	1	8	3	3	4	7	n/a	n/a	n/a
1545048285	1.191675186	4	9	2	4	9	1	9	3	3	4	7	n/a	n/a	n/a
1545048286	1.191704988	4	10	2	4	9	1	10	3	3	4	7	n/a	n/a	n/a
1545048287	1.198885202	4	11	2	4	1	2	1	2	1	4	7	n/a	1545048288	n/a
1545048289	1.191725969	4	12	2	4	1	2	2	1	2	4	7	n/a	1545048289	n/a
1545048290	1.199923992	4	13	2	4	1	2	3	1	1	4	7	n/a	1545048290	n/a
1545048291	1.20844388	4	14	2	4	1	2	4	2	1	4	7	n/a	1545048291	n/a
1545048292	1.191642046	4	15	2	4	1	2	5	2	2	4	7	n/a	1545048292	n/a
1545048293	1.191724062	4	16	2	4	1	2	6	2	2	4	7	n/a	1545048294	n/a
1545048295	1.191478968	4	17	2	4	1	2	7	2	2	4	7	n/a	1545048295	n/a
1545048296	1.199875832	4	18	2	4	1	2	8	2	2	4	7	n/a	1545048296	n/a
1545048297	1.191646814	4	19	2	4	1	2	9	2	2	4	7	n/a	1545048297	n/a
1545048298	1.200011015	4	20	2	4	1	2	10	2	1	4	7	n/a	1545048298	n/a
1545048299	1.191674948	4	21	2	4	1	2	11	2	1	4	7	n/a	1545048300	n/a
1545048301	1.200024843	4	22	2	4	1	2	12	1	2	4	7	n/a	1545048301	n/a
1545048302	1.200011015	4	23	2	4	1	2	13	2	2	4	7	n/a	1545048302	n/a
1545048303	1.200094938	4	24	2	4	1	2	14	2	1	4	7	n/a	1545048303	n/a
1545048304	1.200010061	4	25	2	4	1	2	15	1	2	4	7	n/a	1545048305	n/a
1545048305	1.200048923	4	26	2	4	1	2	16	2	2	4	7	n/a	1545048306	n/a
1545048307	1.200050116	4	27	2	4	1	2	17	2	1	4	7	n/a	1545048307	n/a
1545048308	1.208369017	4	28	2	4	1	2	18	1	1	4	7	n/a	1545048308	n/a
1545048309	1.191680908	4	29	2	4	1	2	19	2	2	4	7	n/a	1545048309	n/a
1545048310	1.199970961	4	30	2	4	1	2	20	2	2	4	7	n/a	1545048311	n/a
1545048311	1.191704988	4	31	2	4	1	2	21	2	1	4	7	n/a	1545048312	n/a
1545048313	1.191641092	4	32	2	4	1	2	22	1	2	4	7	n/a	1545048313	n/a
1545048314	1.200016975	4	33	2	4	1	2	23	1	2	4	7	n/a	1545048314	n/a
1545048315	1.199947119	4	34	2	4	1	2	24	1	1	4	7	n/a	1545048315	n/a
1545048316	1.199965	4	35	2	4	1	2	25	2	2	4	7	n/a	1545048317	n/a
1545048318	1.191673994	4	36	2	4	1	2	26	1	1	4	7	n/a	1545048318	n/a
1545048319	1.200212002	4	37	2	4	1	2	27	1	2	4	7	n/a	1545048319	n/a
1545048320	1.191893816	4	38	2	4	1	2	28	1	2	4	7	n/a	1545048320	n/a
1545048321	1.200863123	4	39	2	4	1	2	29	2	2	4	7	n/a	1545048321	n/a
1545048322	1.199915171	4	40	2	4	1	2	30	2	2	4	7	n/a	1545048323	n/a
1545048324	1.19145298	4	41	2	4	1	2	31	2	1	4	7	n/a	1545048324	n/a
1545048325	1.191807032	4	42	2	4	1	2	32	2	2	4	7	n/a	1545048325	n/a
1545048326	1.191184044	4	43	2	4	9	3	1	3	3	4	7	n/a	n/a	n/a
1545048327	1.191534042	4	44	2	4	9	3	2	3	3	4	7	n/a	n/a	n/a
1545048328	1.191662073	4	45	2	4	9	3	3	3	3	4	7	n/a	n/a	n/a
1545048330	1.191677094	4	46	2	4	9	3	4	3	3	4	7	n/a	n/a	n/a
1545048331	1.191704035	4	47	2	4	9	3	5	3	3	4	7	n/a	n/a	n/a
1545048332	1.299966097	4	48	2	4	9	3	6	3	3	4	7	n/a	n/a	n/a
1545048333	1.300039768	4	49	2	4	9	3	7	3	3	4	7	n/a	n/a	n/a
1545048335	1.199942112	4	50	2	4	9	3	8	3	3	4	7	n/a	n/a	n/a
1545048336	1.191660881	4	51	2	4	9	3	9	3	3	4	7	n/a	n/a	n/a
1545048337	1.191734076	4	52	2	4	9	3	10	3	3	4	7	n/a	n/a	n/a
1545048338	1.19178009	4	53	2	4	3	4	1	1	1	4	7	n/a	1545048338	n/a
1545048339	1.200165033	4	54	2	4	3	4	2	1	1	4	7	n/a	1545048340	n/a
1545048341	1.200058937	4	55	2	4	3	4	3	1	1	4	7	n/a	1545048341	n/a
1545048342	1.191675901	4	56	2	4	3	4	4	1	2	4	7	n/a	1545048342	n/a
1545048343	1.191650867	4	57	2	4	3	4	5	1	1	4	7	n/a	1545048343	n/a
1545048344	1.200109959	4	58	2	4	3	4	6	2	2	4	7	n/a	1545048344	n/a
1545048345	1.208320856	4	59	2	4	3	4	7	1	1	4	7	n/a	1545048346	n/a
1545048347	1.199980974	4	60	2	4	3	4	8	2	2	4	7	n/a	1545048347	n/a
1545048348	1.191702127	4	61	2	4	3	4	9	1	1	4	7	n/a	1545048348	n/a
1545048349	1.191688061	4	62	2	4	3	4	10	2	2	4	7	n/a	1545048349	n/a
1545048350	1.200018883	4	63	2	4	3	4	11	1	2	4	7	n/a	1545048351	n/a
1545048351	1.191758156	4	64	2	4	3	4	12	2	2	4	7	n/a	1545048352	n/a
1545048353	1.191656113	4	65	2	4	3	4	13	2	1	4	7	n/a	1545048353	n/a
1545048354	1.191802979	4	66	2	4	3	4	14	2	2	4	7	n/a	1545048354	n/a
1545048355	1.191640139	4	67	2	4	3	4	15	2	1	4	7	n/a	1545048355	n/a
1545048356	1.191699982	4	68	2	4	3	4	16	1	2	4	7	n/a	1545048357	n/a
1545048357	1.191812992	4	69	2	4	3	4	17	2	2	4	7	n/a	1545048358	n/a
1545048359	1.191766977	4	70	2	4	3	4	18	2	1	4	7	n/a	1545048359	n/a
1545048360	1.191645861	4	71	2	4	9	5	1	3	3	4	7	n/a	n/a	n/a
1545048361	1.191751003	4	72	2	4	9	5	2	3	3	4	7	n/a	n/a	n/a
1545048362	1.191688061	4	73	2	4	9	5	3	3	3	4	7	n/a	n/a	n/a
1545048363	1.191821098	4	74	2	4	9	5	4	3	3	4	7	n/a	n/a	n/a
1545048365	1.191622019	4	75	2	4	9	5	5	3	3	4	7	n/a	n/a	n/a
1545048366	1.19174099	4	76	2	4	9	5	6	3	3	4	7	n/a	n/a	n/a
1545048367	1.191745996	4	77	2	4	9	5	7	3	3	4	7	n/a	n/a	n/a
1545048368	1.191689968	4	78	2	4	9	5	8	3	3	4	7	n/a	n/a	n/a
1545048369	1.19175601	4	79	2	4	9	5	9	3	3	4	7	n/a	n/a	n/a
1545048371	1.191618204	4	80	2	4	9	5	10	3	3	4	7	n/a	n/a	n/a
1545048372	1.208512068	4	81	2	4	5	6	1	2	1	4	7	n/a	1545048372	n/a
1545048373	1.192003012	4	82	2	4	5	6	2	2	1	4	7	n/a	1545048373	n/a
1545048374	1.208515882	4	83	2	4	5	6	3	2	2	4	7	n/a	1545048375	n/a
1545048375	1.191749811	4	84	2	4	5	6	4	2	2	4	7	n/a	1545048376	n/a
1545048377	1.199829102	4	85	2	4	5	6	5	2	2	4	7	n/a	1545048377	n/a
1545048378	1.19157505	4	86	2	4	5	6	6	1	1	4	7	n/a	1545048378	n/a
1545048379	1.199816942	4	87	2	4	5	6	7	1	2	4	7	n/a	1545048379	n/a
1545048380	1.216817856	4	88	2	4	5	6	8	2	1	4	7	n/a	1545048381	n/a
1545048382	1.19161582	4	89	2	4	5	6	9	1	2	4	7	n/a	1545048382	n/a
1545048383	1.191680908	4	90	2	4	5	6	10	2	1	4	7	n/a	1545048383	n/a
1545048384	1.191674948	4	91	2	4	5	6	11	1	2	4	7	n/a	1545048384	n/a
1545048385	1.199991941	4	92	2	4	5	6	12	2	1	4	7	n/a	1545048385	n/a
1545048386	1.191683054	4	93	2	4	5	6	13	2	1	4	7	n/a	1545048387	n/a
1545048388	1.191684961	4	94	2	4	5	6	14	2	1	4	7	n/a	1545048388	n/a
1545048389	1.191679001	4	95	2	4	5	6	15	1	1	4	7	n/a	1545048389	n/a
1545048390	1.191788912	4	96	2	4	5	6	16	2	1	4	7	n/a	1545048390	n/a
1545048391	1.208418131	4	97	2	4	5	6	17	2	1	4	7	n/a	1545048391	n/a
1545048392	1.200008154	4	98	2	4	5	6	18	2	1	4	7	n/a	1545048393	n/a
1545048394	1.191684008	4	99	2	4	5	6	19	2	1	4	7	n/a	1545048394	n/a
1545048395	1.191629887	4	100	2	4	5	6	20	2	2	4	7	n/a	1545048395	n/a
1545048396	1.191551924	4	101	2	4	5	6	21	2	2	4	7	n/a	1545048396	n/a
1545048397	1.191596031	4	102	2	4	5	6	22	1	2	4	7	n/a	1545048397	n/a
1545048398	1.200016975	4	103	2	4	5	6	23	1	2	4	7	n/a	1545048399	n/a
1545048400	1.191715956	4	104	2	4	5	6	24	2	1	4	7	n/a	1545048400	n/a
1545048401	1.191671848	4	105	2	4	5	6	25	1	2	4	7	n/a	1545048401	n/a
1545048402	1.191818953	4	106	2	4	5	6	26	2	2	4	7	n/a	1545048402	n/a
1545048403	1.216657162	4	107	2	4	5	6	27	1	2	4	7	n/a	1545048403	n/a
1545048404	1.200272799	4	108	2	4	5	6	28	1	2	4	7	n/a	1545048405	n/a
1545048406	1.208346128	4	109	2	4	5	6	29	1	1	4	7	n/a	1545048406	n/a
1545048407	1.19172287	4	110	2	4	5	6	30	2	2	4	7	n/a	1545048407	n/a
1545048408	1.191609859	4	111	2	4	5	6	31	1	1	4	7	n/a	1545048408	n/a
1545048409	1.191784859	4	112	2	4	5	6	32	2	1	4	7	n/a	1545048410	n/a
1545048410	1.200141191	4	113	2	4	9	7	1	3	3	4	7	n/a	n/a	n/a
1545048412	1.191808939	4	114	2	4	9	7	2	3	3	4	7	n/a	n/a	n/a
1545048413	1.191902876	4	115	2	4	9	7	3	3	3	4	7	n/a	n/a	n/a
1545048414	1.191972971	4	116	2	4	9	7	4	3	3	4	7	n/a	n/a	n/a
1545048415	1.191679955	4	117	2	4	9	7	5	3	3	4	7	n/a	n/a	n/a
1545048416	1.191723108	4	118	2	4	9	7	6	3	3	4	7	n/a	n/a	n/a
1545048418	1.191704035	4	119	2	4	9	7	7	3	3	4	7	n/a	n/a	n/a
1545048419	1.191893101	4	120	2	4	9	7	8	3	3	4	7	n/a	n/a	n/a
1545048420	1.191792965	4	121	2	4	9	7	9	3	3	4	7	n/a	n/a	n/a
1545048421	1.191623211	4	122	2	4	9	7	10	3	3	4	7	n/a	n/a	n/a
1545048422	1.199950218	4	123	2	4	7	8	1	2	2	4	7	n/a	1545048423	n/a
1545048424	1.191735983	4	124	2	4	7	8	2	1	2	4	7	n/a	1545048424	n/a
1545048425	1.191826105	4	125	2	4	7	8	3	1	2	4	7	n/a	1545048425	n/a
1545048426	1.199994802	4	126	2	4	7	8	4	2	1	4	7	n/a	1545048426	n/a
1545048427	1.200199842	4	127	2	4	7	8	5	2	1	4	7	n/a	1545048428	n/a
1545048428	1.191841841	4	128	2	4	7	8	6	2	1	4	7	n/a	1545048429	n/a
1545048430	1.191596985	4	129	2	4	7	8	7	2	2	4	7	n/a	1545048430	n/a
1545048431	1.199872971	4	130	2	4	7	8	8	2	1	4	7	n/a	1545048431	n/a
1545048432	1.191542149	4	131	2	4	7	8	9	2	2	4	7	n/a	1545048432	n/a
1545048433	1.191683054	4	132	2	4	7	8	10	2	1	4	7	n/a	1545048434	n/a
1545048434	1.191751957	4	133	2	4	7	8	11	2	1	4	7	n/a	1545048435	n/a
1545048436	1.20004487	4	134	2	4	7	8	12	1	1	4	7	n/a	1545048436	n/a
1545048437	1.191744089	4	135	2	4	7	8	13	2	1	4	7	n/a	1545048437	n/a
1545048438	1.200019121	4	136	2	4	7	8	14	2	2	4	7	n/a	1545048438	n/a
1545048439	1.1916821	4	137	2	4	7	8	15	2	2	4	7	n/a	1545048440	n/a
1545048440	1.199981928	4	138	2	4	7	8	16	2	2	4	7	n/a	1545048441	n/a
1545048442	1.191849947	4	139	2	4	7	8	17	2	1	4	7	n/a	1545048442	n/a
1545048443	1.208442926	4	140	2	4	7	8	18	1	2	4	7	n/a	1545048443	n/a
1545048444	1.191972017	4	141	2	4	9	9	1	3	3	4	7	n/a	n/a	n/a
1545048445	1.191900969	4	142	2	4	9	9	2	3	3	4	7	n/a	n/a	n/a
1545048447	1.191648006	4	143	2	4	9	9	3	3	3	4	7	n/a	n/a	n/a
1545048448	1.19156909	4	144	2	4	9	9	4	3	3	4	7	n/a	n/a	n/a
1545048449	1.191678047	4	145	2	4	9	9	5	3	3	4	7	n/a	n/a	n/a
1545048450	1.191720963	4	146	2	4	9	9	6	3	3	4	7	n/a	n/a	n/a
1545048451	1.191679001	4	147	2	4	9	9	7	3	3	4	7	n/a	n/a	n/a
1545048453	1.191614151	4	148	2	4	9	9	8	3	3	4	7	n/a	n/a	n/a
1545048454	1.191715002	4	149	2	4	9	9	9	3	3	4	7	n/a	n/a	n/a
1545048455	1.19188118	4	150	2	4	9	9	10	3	3	4	7	n/a	n/a	n/a
