onset	duration	run_number	trial_number	att_task	fix_direction	bar_period	bar_direction	bar_step	fix_noise_ori	stim_noise_ori	fix_stair_val	stim_stair_val	response_val	probe_time	reaction_time
1545047362	1.191401005	1	1	1	4	9	1	1	3	3	9	9	n/a	n/a	n/a
1545047363	1.191729069	1	2	1	4	9	1	2	3	3	9	9	n/a	n/a	n/a
1545047364	1.191870928	1	3	1	4	9	1	3	3	3	9	9	n/a	n/a	n/a
1545047365	1.191989183	1	4	1	4	9	1	4	3	3	9	9	n/a	n/a	n/a
1545047367	1.191751957	1	5	1	4	9	1	5	3	3	9	9	n/a	n/a	n/a
1545047368	1.191768885	1	6	1	4	9	1	6	3	3	9	9	n/a	n/a	n/a
1545047369	1.191694021	1	7	1	4	9	1	7	3	3	9	9	n/a	n/a	n/a
1545047370	1.191758871	1	8	1	4	9	1	8	3	3	9	9	n/a	n/a	n/a
1545047371	1.191632986	1	9	1	4	9	1	9	3	3	9	9	n/a	n/a	n/a
1545047373	1.191675186	1	10	1	4	9	1	10	3	3	9	9	n/a	n/a	n/a
1545047374	1.207305908	1	11	1	4	1	2	1	1	2	9	9	n/a	1545047374	n/a
1545047375	1.191682816	1	12	1	4	1	2	2	2	2	9	9	n/a	1545047375	n/a
1545047376	1.191676855	1	13	1	4	1	2	3	2	2	9	9	n/a	1545047377	n/a
1545047377	1.199966908	1	14	1	4	1	2	4	1	1	9	9	1	1545047378	0.7755270004
1545047379	1.191628218	1	15	1	4	1	2	5	2	2	9	9	0	1545047379	0.8998119831
1545047380	1.200241089	1	16	1	4	1	2	6	1	2	11	9	0	1545047380	0.7920298576
1545047381	1.191957951	1	17	1	4	1	2	7	2	1	12	9	0	1545047381	0.8168489933
1545047382	1.200193882	1	18	1	4	1	2	8	1	1	13	9	0	1545047383	0.8421871662
1545047383	1.191498041	1	19	1	4	1	2	9	1	2	13	9	n/a	1545047384	n/a
1545047385	1.191562891	1	20	1	4	1	2	10	1	2	13	9	n/a	1545047385	n/a
1545047386	1.191703081	1	21	1	4	1	2	11	2	2	13	9	n/a	1545047386	n/a
1545047387	1.191689014	1	22	1	4	1	2	12	2	1	13	9	1	1545047387	0.5753428936
1545047388	1.191679955	1	23	1	4	1	2	13	1	1	13	9	1	1545047389	0.6004471779
1545047389	1.19165802	1	24	1	4	1	2	14	1	1	12	9	1	1545047390	0.6011369228
1545047391	1.200011015	1	25	1	4	1	2	15	1	2	12	9	1	1545047391	0.5419261456
1545047392	1.199985981	1	26	1	4	1	2	16	1	1	12	9	1	1545047392	0.5671291351
1545047393	1.200020075	1	27	1	4	1	2	17	2	1	11	9	1	1545047393	0.533495903
1545047394	1.200031996	1	28	1	4	1	2	18	2	2	11	9	1	1545047395	0.6344480515
1545047396	1.191736937	1	29	1	4	1	2	19	1	1	11	9	1	1545047396	0.6923410892
1545047397	1.191697121	1	30	1	4	1	2	20	2	2	10	9	1	1545047397	0.6335420609
1545047398	1.200017929	1	31	1	4	1	2	21	2	2	10	9	1	1545047398	0.5836679935
1545047399	1.200015068	1	32	1	4	1	2	22	1	2	10	9	1	1545047399	0.5835080147
1545047400	1.199975967	1	33	1	4	1	2	23	1	1	9	9	1	1545047401	0.7086510658
1545047402	1.200196981	1	34	1	4	1	2	24	1	1	9	9	1	1545047402	0.5500669479
1545047403	1.200000048	1	35	1	4	1	2	25	1	1	9	9	1	1545047403	0.524971962
1545047404	1.191700935	1	36	1	4	1	2	26	1	2	9	9	n/a	1545047404	n/a
1545047405	1.200026989	1	37	1	4	1	2	27	2	1	8	9	1	1545047405	0.6751689911
1545047406	1.199986935	1	38	1	4	1	2	28	2	2	8	9	1	1545047407	0.6261270046
1545047408	1.200011015	1	39	1	4	1	2	29	1	1	8	9	1	1545047408	0.6750869751
1545047409	1.200008869	1	40	1	4	1	2	30	2	1	7	9	1	1545047409	0.666754961
1545047410	1.199960947	1	41	1	4	1	2	31	1	2	7	9	1	1545047410	0.7918288708
1545047411	1.199995995	1	42	1	4	1	2	32	1	2	7	9	1	1545047412	0.7584881783
1545047412	1.191329956	1	43	1	4	9	3	1	3	3	7	9	n/a	n/a	n/a
1545047414	1.191609859	1	44	1	4	9	3	2	3	3	7	9	n/a	n/a	n/a
1545047415	1.19164896	1	45	1	4	9	3	3	3	3	7	9	n/a	n/a	n/a
1545047416	1.19175601	1	46	1	4	9	3	4	3	3	7	9	n/a	n/a	n/a
1545047417	1.191645145	1	47	1	4	9	3	5	3	3	7	9	n/a	n/a	n/a
1545047418	1.191661835	1	48	1	4	9	3	6	3	3	7	9	n/a	n/a	n/a
1545047420	1.191697836	1	49	1	4	9	3	7	3	3	7	9	n/a	n/a	n/a
1545047421	1.191497087	1	50	1	4	9	3	8	3	3	7	9	n/a	n/a	n/a
1545047422	1.191498995	1	51	1	4	9	3	9	3	3	7	9	n/a	n/a	n/a
1545047423	1.191745996	1	52	1	4	9	3	10	3	3	7	9	n/a	n/a	n/a
1545047424	1.191874027	1	53	1	4	3	4	1	1	2	7	9	n/a	1545047425	n/a
1545047426	1.199895144	1	54	1	4	3	4	2	1	1	7	9	n/a	1545047426	n/a
1545047427	1.200011015	1	55	1	4	3	4	3	2	2	6	9	1	1545047427	0.6255259514
1545047428	1.199982166	1	56	1	4	3	4	4	2	1	6	9	n/a	1545047428	n/a
1545047429	1.200037956	1	57	1	4	3	4	5	2	2	6	9	n/a	1545047430	n/a
1545047430	1.200008869	1	58	1	4	3	4	6	2	1	6	9	1	1545047431	0.8250060081
1545047432	1.200016022	1	59	1	4	3	4	7	1	1	6	9	1	1545047432	0.7085139751
1545047433	1.200034857	1	60	1	4	3	4	8	1	1	5	9	1	1545047433	0.5669300556
1545047434	1.200013876	1	61	1	4	3	4	9	1	2	5	9	1	1545047434	0.6335089207
1545047435	1.200016022	1	62	1	4	3	4	10	2	2	6	9	0	1545047436	0.7003369331
1545047437	1.200021029	1	63	1	4	3	4	11	2	1	6	9	1	1545047437	0.8334789276
1545047438	1.191672087	1	64	1	4	3	4	12	1	1	6	9	n/a	1545047438	n/a
1545047439	1.200058937	1	65	1	4	3	4	13	2	1	6	9	1	1545047439	0.8001179695
1545047440	1.191671133	1	66	1	4	3	4	14	1	2	5	9	1	1545047440	0.7001450062
1545047441	1.200191975	1	67	1	4	3	4	15	1	2	5	9	1	1545047442	0.7417900562
1545047443	1.208273888	1	68	1	4	3	4	16	1	2	5	9	1	1545047443	0.7001538277
1545047444	1.200104952	1	69	1	4	3	4	17	2	1	4	9	1	1545047444	0.7918140888
1545047445	1.200205088	1	70	1	4	3	4	18	1	2	4	9	n/a	1545047445	n/a
1545047446	1.191701889	1	71	1	4	9	5	1	3	3	4	9	n/a	n/a	n/a
1545047447	1.191678047	1	72	1	4	9	5	2	3	3	4	9	n/a	n/a	n/a
1545047449	1.191609859	1	73	1	4	9	5	3	3	3	4	9	n/a	n/a	n/a
1545047450	1.191565037	1	74	1	4	9	5	4	3	3	4	9	n/a	n/a	n/a
1545047451	1.19158411	1	75	1	4	9	5	5	3	3	4	9	n/a	n/a	n/a
1545047452	1.191669941	1	76	1	4	9	5	6	3	3	4	9	n/a	n/a	n/a
1545047453	1.19170785	1	77	1	4	9	5	7	3	3	4	9	n/a	n/a	n/a
1545047455	1.191657066	1	78	1	4	9	5	8	3	3	4	9	n/a	n/a	n/a
1545047456	1.191623926	1	79	1	4	9	5	9	3	3	4	9	n/a	n/a	n/a
1545047457	1.191684008	1	80	1	4	9	5	10	3	3	4	9	n/a	n/a	n/a
1545047458	1.199982166	1	81	1	4	5	6	1	2	1	5	9	0	1545047458	0.7003259659
1545047459	1.191683054	1	82	1	4	5	6	2	1	2	5	9	1	1545047460	0.8836939335
1545047461	1.191801071	1	83	1	4	5	6	3	1	1	5	9	1	1545047461	0.900384903
1545047462	1.191723108	1	84	1	4	5	6	4	1	1	5	9	n/a	1545047462	n/a
1545047463	1.19157505	1	85	1	4	5	6	5	1	1	5	9	n/a	1545047463	n/a
1545047464	1.200010061	1	86	1	4	5	6	6	2	1	5	9	n/a	1545047464	n/a
1545047465	1.199965954	1	87	1	4	5	6	7	1	1	5	9	n/a	1545047466	n/a
1545047467	1.200018883	1	88	1	4	5	6	8	1	1	5	9	n/a	1545047467	n/a
1545047468	1.19165206	1	89	1	4	5	6	9	1	1	5	9	n/a	1545047468	n/a
1545047469	1.191740036	1	90	1	4	5	6	10	1	2	4	9	1	1545047469	0.625056982
1545047470	1.200041056	1	91	1	4	5	6	11	1	1	4	9	1	1545047471	0.8001790047
1545047471	1.199997902	1	92	1	4	5	6	12	2	2	4	9	n/a	1545047472	n/a
1545047473	1.200010061	1	93	1	4	5	6	13	2	1	4	9	n/a	1545047473	n/a
1545047474	1.191620111	1	94	1	4	5	6	14	1	1	4	9	n/a	1545047474	n/a
1545047475	1.199984074	1	95	1	4	5	6	15	2	2	4	9	n/a	1545047475	n/a
1545047476	1.200009108	1	96	1	4	5	6	16	2	1	4	9	n/a	1545047477	n/a
1545047477	1.191673994	1	97	1	4	5	6	17	1	1	5	9	0	1545047478	0.07546710968
1545047479	1.191674948	1	98	1	4	5	6	18	1	1	5	9	1	1545047479	0.8167450428
1545047480	1.200208187	1	99	1	4	5	6	19	1	2	5	9	1	1545047480	0.858397007
1545047481	1.200107098	1	100	1	4	5	6	20	1	1	5	9	n/a	1545047481	n/a
1545047482	1.199971914	1	101	1	4	5	6	21	2	2	5	9	n/a	1545047483	n/a
1545047483	1.200184822	1	102	1	4	5	6	22	2	1	5	9	n/a	1545047484	n/a
1545047485	1.199975967	1	103	1	4	5	6	23	1	1	5	9	n/a	1545047485	n/a
1545047486	1.20040679	1	104	1	4	5	6	24	1	1	5	9	n/a	1545047486	n/a
1545047487	1.199918032	1	105	1	4	5	6	25	2	1	6	9	0	1545047487	0.1586720943
1545047488	1.200082064	1	106	1	4	5	6	26	1	2	6	9	1	1545047489	0.8250620365
1545047490	1.199832201	1	107	1	4	5	6	27	2	2	6	9	n/a	1545047490	n/a
1545047491	1.199933052	1	108	1	4	5	6	28	1	1	7	9	0	1545047491	0.0002069473267
1545047492	1.199850082	1	109	1	4	5	6	29	2	2	7	9	n/a	1545047492	n/a
1545047493	1.191142797	1	110	1	4	5	6	30	1	2	7	9	1	1545047493	0.6336538792
1545047494	1.199945927	1	111	1	4	5	6	31	2	1	7	9	1	1545047495	0.8503408432
1545047496	1.199963093	1	112	1	4	5	6	32	1	2	7	9	n/a	1545047496	n/a
1545047497	1.191744089	1	113	1	4	9	7	1	3	3	7	9	n/a	n/a	n/a
1545047498	1.191644907	1	114	1	4	9	7	2	3	3	7	9	n/a	n/a	n/a
1545047499	1.19175005	1	115	1	4	9	7	3	3	3	7	9	n/a	n/a	n/a
1545047500	1.19164896	1	116	1	4	9	7	4	3	3	7	9	n/a	n/a	n/a
1545047502	1.191613913	1	117	1	4	9	7	5	3	3	7	9	n/a	n/a	n/a
1545047503	1.191643	1	118	1	4	9	7	6	3	3	7	9	n/a	n/a	n/a
1545047504	1.191647053	1	119	1	4	9	7	7	3	3	7	9	n/a	n/a	n/a
1545047505	1.192108154	1	120	1	4	9	7	8	3	3	7	9	n/a	n/a	n/a
1545047506	1.191524982	1	121	1	4	9	7	9	3	3	7	9	n/a	n/a	n/a
1545047508	1.19167614	1	122	1	4	9	7	10	3	3	7	9	n/a	n/a	n/a
1545047509	1.200061083	1	123	1	4	7	8	1	1	2	6	9	1	1545047509	0.725425005
1545047510	1.191672087	1	124	1	4	7	8	2	1	2	6	9	1	1545047510	0.700152874
1545047511	1.200006008	1	125	1	4	7	8	3	2	2	6	9	1	1545047511	0.8751590252
1545047512	1.200040817	1	126	1	4	7	8	4	1	2	6	9	1	1545047513	0.8833990097
1545047514	1.200015068	1	127	1	4	7	8	5	1	1	5	9	1	1545047514	0.8501000404
1545047515	1.200034857	1	128	1	4	7	8	6	1	2	5	9	n/a	1545047515	n/a
1545047516	1.200084925	1	129	1	4	7	8	7	1	1	5	9	n/a	1545047516	n/a
1545047517	1.199986935	1	130	1	4	7	8	8	2	1	5	9	1	1545047518	0.8417611122
1545047518	1.200032949	1	131	1	4	7	8	9	1	2	5	9	n/a	1545047519	n/a
1545047520	1.200003862	1	132	1	4	7	8	10	2	2	5	9	n/a	1545047520	n/a
1545047521	1.199923038	1	133	1	4	7	8	11	2	1	4	9	1	1545047521	0.8501179218
1545047522	1.200001955	1	134	1	4	7	8	12	2	1	4	9	1	1545047522	0.8918299675
1545047523	1.200013876	1	135	1	4	7	8	13	1	2	4	9	n/a	1545047524	n/a
1545047524	1.200016975	1	136	1	4	7	8	14	2	2	4	9	n/a	1545047525	n/a
1545047526	1.191673994	1	137	1	4	7	8	15	2	2	4	9	n/a	1545047526	n/a
1545047527	1.200013876	1	138	1	4	7	8	16	1	2	4	9	n/a	1545047527	n/a
1545047528	1.200078964	1	139	1	4	7	8	17	1	1	4	9	n/a	1545047528	n/a
1545047529	1.200011969	1	140	1	4	7	8	18	1	2	4	9	1	1545047530	0.07530498505
1545047531	1.192008972	1	141	1	4	9	9	1	3	3	4	9	n/a	n/a	n/a
1545047532	1.191905975	1	142	1	4	9	9	2	3	3	4	9	n/a	n/a	n/a
1545047533	1.191762209	1	143	1	4	9	9	3	3	3	4	9	n/a	n/a	n/a
1545047534	1.191591978	1	144	1	4	9	9	4	3	3	4	9	n/a	n/a	n/a
1545047535	1.191684008	1	145	1	4	9	9	5	3	3	4	9	n/a	n/a	n/a
1545047537	1.191669941	1	146	1	4	9	9	6	3	3	4	9	n/a	n/a	n/a
1545047538	1.191658974	1	147	1	4	9	9	7	3	3	4	9	n/a	n/a	n/a
1545047539	1.191608191	1	148	1	4	9	9	8	3	3	4	9	n/a	n/a	n/a
1545047540	1.191804171	1	149	1	4	9	9	9	3	3	4	9	n/a	n/a	n/a
1545047541	1.191857815	1	150	1	4	9	9	10	3	3	4	9	n/a	n/a	n/a
